ExperimentName,Subject,Session,Clock.Information,DataFile.Basename,Display.RefreshRate,ExperimentVersion,Group,RandomSeed,RuntimeVersion,RuntimeVersionExpected,SessionDate,SessionStartDateTimeUtc,SessionTime,StudioVersion,Block,A,B,Block1,Block1.Cycle,Block1.Sample,Block2,Block2.Cycle,Block2.Sample,Block3,Block3.Cycle,Block3.Sample,cat,catA,catB,cons,correct_resp,dur,durA,durB,f0,f0A,f0B,f2,f2A,f2B,PracticeList,PracticeList.Cycle,PracticeList.Sample,Procedure,resp.CRESP,resp.RESP,resp.RT,resp1,resp2,respond.RESP,respond.RT,respond.RTTime,Running,soundfile,testList,testList.Cycle,testList.Sample,X
v4_BCL_bal_d,14,1,<?xml version="1.0"?>\n<Clock xmlns:dt="urn:schemas-microsoft-com:datatypes"><Description dt:dt="string">E-Prime Primary Realtime Clock</Description><StartTime><Timestamp dt:dt="int">0</Timestamp><DateUtc dt:dt="string">2015-02-11T14:51:56Z</DateUtc></StartTime><FrequencyChanges><FrequencyChange><Frequency dt:dt="r8">2327510000</Frequency><Timestamp dt:dt="r8">909333814760</Timestamp><Current dt:dt="r8">0</Current><DateUtc dt:dt="string">2015-02-11T14:51:56Z</DateUtc></FrequencyChange></FrequencyChanges></Clock>\n,v4_BCL_bal_d-14-1,60.001,1.0.0.227,1,-743314279,2.0.10.242,2.0.10.242,02-11-2015,2/11/2015 2:51:56 PM,09:51:56,2.0.10.147,1,,,,,,,,,,,,NA,,,NA,,NA,,,NA,,,NA,,,1,1,1,PracProc,,,,vowel 1,vowel 2,1,1329,259874,PracticeList,key.wav,,,,
v4_BCL_bal_d,14,1,<?xml version="1.0"?>\n<Clock xmlns:dt="urn:schemas-microsoft-com:datatypes"><Description dt:dt="string">E-Prime Primary Realtime Clock</Description><StartTime><Timestamp dt:dt="int">0</Timestamp><DateUtc dt:dt="string">2015-02-11T14:51:56Z</DateUtc></StartTime><FrequencyChanges><FrequencyChange><Frequency dt:dt="r8">2327510000</Frequency><Timestamp dt:dt="r8">909333814760</Timestamp><Current dt:dt="r8">0</Current><DateUtc dt:dt="string">2015-02-11T14:51:56Z</DateUtc></FrequencyChange></FrequencyChanges></Clock>\n,v4_BCL_bal_d-14-1,60.001,1.0.0.227,1,-743314279,2.0.10.242,2.0.10.242,02-11-2015,2/11/2015 2:51:56 PM,09:51:56,2.0.10.147,2,,,,,,,,,,,,NA,,,NA,,NA,,,NA,,,NA,,,3,1,2,PracProc,,,,vowel 1,vowel 2,1,702,261481,PracticeList,tea.wav,,,,
v4_BCL_bal_d,14,1,<?xml version="1.0"?>\n<Clock xmlns:dt="urn:schemas-microsoft-com:datatypes"><Description dt:dt="string">E-Prime Primary Realtime Clock</Description><StartTime><Timestamp dt:dt="int">0</Timestamp><DateUtc dt:dt="string">2015-02-11T14:51:56Z</DateUtc></StartTime><FrequencyChanges><FrequencyChange><Frequency dt:dt="r8">2327510000</Frequency><Timestamp dt:dt="r8">909333814760</Timestamp><Current dt:dt="r8">0</Current><DateUtc dt:dt="string">2015-02-11T14:51:56Z</DateUtc></FrequencyChange></FrequencyChanges></Clock>\n,v4_BCL_bal_d-14-1,60.001,1.0.0.227,1,-743314279,2.0.10.242,2.0.10.242,02-11-2015,2/11/2015 2:51:56 PM,09:51:56,2.0.10.147,3,,,,,,,,,,,,NA,,,NA,,NA,,,NA,,,NA,,,4,1,3,PracProc,,,,vowel 1,vowel 2,2,420,262815,PracticeList,tay.wav,,,,
v4_BCL_bal_d,14,1,<?xml version="1.0"?>\n<Clock xmlns:dt="urn:schemas-microsoft-com:datatypes"><Description dt:dt="string">E-Prime Primary Realtime Clock</Description><StartTime><Timestamp dt:dt="int">0</Timestamp><DateUtc dt:dt="string">2015-02-11T14:51:56Z</DateUtc></StartTime><FrequencyChanges><FrequencyChange><Frequency dt:dt="r8">2327510000</Frequency><Timestamp dt:dt="r8">909333814760</Timestamp><Current dt:dt="r8">0</Current><DateUtc dt:dt="string">2015-02-11T14:51:56Z</DateUtc></FrequencyChange></FrequencyChanges></Clock>\n,v4_BCL_bal_d-14-1,60.001,1.0.0.227,1,-743314279,2.0.10.242,2.0.10.242,02-11-2015,2/11/2015 2:51:56 PM,09:51:56,2.0.10.147,4,,,,,,,,,,,,NA,,,NA,,NA,,,NA,,,NA,,,5,1,4,PracProc,,,,vowel 1,vowel 2,1,504,264249,PracticeList,see.wav,,,,
v4_BCL_bal_d,14,1,<?xml version="1.0"?>\n<Clock xmlns:dt="urn:schemas-microsoft-com:datatypes"><Description dt:dt="string">E-Prime Primary Realtime Clock</Description><StartTime><Timestamp dt:dt="int">0</Timestamp><DateUtc dt:dt="string">2015-02-11T14:51:56Z</DateUtc></StartTime><FrequencyChanges><FrequencyChange><Frequency dt:dt="r8">2327510000</Frequency><Timestamp dt:dt="r8">909333814760</Timestamp><Current dt:dt="r8">0</Current><DateUtc dt:dt="string">2015-02-11T14:51:56Z</DateUtc></FrequencyChange></FrequencyChanges></Clock>\n,v4_BCL_bal_d-14-1,60.001,1.0.0.227,1,-743314279,2.0.10.242,2.0.10.242,02-11-2015,2/11/2015 2:51:56 PM,09:51:56,2.0.10.147,5,,,,,,,,,,,,NA,,,NA,,NA,,,NA,,,NA,,,2,1,5,PracProc,,,,vowel 1,vowel 2,2,374,265536,PracticeList,kay.wav,,,,
v4_BCL_bal_d,14,1,<?xml version="1.0"?>\n<Clock xmlns:dt="urn:schemas-microsoft-com:datatypes"><Description dt:dt="string">E-Prime Primary Realtime Clock</Description><StartTime><Timestamp dt:dt="int">0</Timestamp><DateUtc dt:dt="string">2015-02-11T14:51:56Z</DateUtc></StartTime><FrequencyChanges><FrequencyChange><Frequency dt:dt="r8">2327510000</Frequency><Timestamp dt:dt="r8">909333814760</Timestamp><Current dt:dt="r8">0</Current><DateUtc dt:dt="string">2015-02-11T14:51:56Z</DateUtc></FrequencyChange></FrequencyChanges></Clock>\n,v4_BCL_bal_d-14-1,60.001,1.0.0.227,1,-743314279,2.0.10.242,2.0.10.242,02-11-2015,2/11/2015 2:51:56 PM,09:51:56,2.0.10.147,6,,,,,,,,,,,,NA,,,NA,,NA,,,NA,,,NA,,,6,1,6,PracProc,,,,vowel 1,vowel 2,2,525,266970,PracticeList,say.wav,,,,
v4_BCL_bal_d,14,1,<?xml version="1.0"?>\n<Clock xmlns:dt="urn:schemas-microsoft-com:datatypes"><Description dt:dt="string">E-Prime Primary Realtime Clock</Description><StartTime><Timestamp dt:dt="int">0</Timestamp><DateUtc dt:dt="string">2015-02-11T14:51:56Z</DateUtc></StartTime><FrequencyChanges><FrequencyChange><Frequency dt:dt="r8">2327510000</Frequency><Timestamp dt:dt="r8">909333814760</Timestamp><Current dt:dt="r8">0</Current><DateUtc dt:dt="string">2015-02-11T14:51:56Z</DateUtc></FrequencyChange></FrequencyChanges></Clock>\n,v4_BCL_bal_d-14-1,60.001,1.0.0.227,1,-743314279,2.0.10.242,2.0.10.242,02-11-2015,2/11/2015 2:51:56 PM,09:51:56,2.0.10.147,7,,,,,,,,,,,,NA,,,NA,,NA,,,NA,,,NA,,,5,2,7,PracProc,,,,vowel 1,vowel 2,1,383,268261,PracticeList,see.wav,,,,
v4_BCL_bal_d,14,1,<?xml version="1.0"?>\n<Clock xmlns:dt="urn:schemas-microsoft-com:datatypes"><Description dt:dt="string">E-Prime Primary Realtime Clock</Description><StartTime><Timestamp dt:dt="int">0</Timestamp><DateUtc dt:dt="string">2015-02-11T14:51:56Z</DateUtc></StartTime><FrequencyChanges><FrequencyChange><Frequency dt:dt="r8">2327510000</Frequency><Timestamp dt:dt="r8">909333814760</Timestamp><Current dt:dt="r8">0</Current><DateUtc dt:dt="string">2015-02-11T14:51:56Z</DateUtc></FrequencyChange></FrequencyChanges></Clock>\n,v4_BCL_bal_d-14-1,60.001,1.0.0.227,1,-743314279,2.0.10.242,2.0.10.242,02-11-2015,2/11/2015 2:51:56 PM,09:51:56,2.0.10.147,8,,,,,,,,,,,,NA,,,NA,,NA,,,NA,,,NA,,,4,2,8,PracProc,,,,vowel 1,vowel 2,2,203,269381,PracticeList,tay.wav,,,,
v4_BCL_bal_d,14,1,<?xml version="1.0"?>\n<Clock xmlns:dt="urn:schemas-microsoft-com:datatypes"><Description dt:dt="string">E-Prime Primary Realtime Clock</Description><StartTime><Timestamp dt:dt="int">0</Timestamp><DateUtc dt:dt="string">2015-02-11T14:51:56Z</DateUtc></StartTime><FrequencyChanges><FrequencyChange><Frequency dt:dt="r8">2327510000</Frequency><Timestamp dt:dt="r8">909333814760</Timestamp><Current dt:dt="r8">0</Current><DateUtc dt:dt="string">2015-02-11T14:51:56Z</DateUtc></FrequencyChange></FrequencyChanges></Clock>\n,v4_BCL_bal_d-14-1,60.001,1.0.0.227,1,-743314279,2.0.10.242,2.0.10.242,02-11-2015,2/11/2015 2:51:56 PM,09:51:56,2.0.10.147,9,,,,,,,,,,,,NA,,,NA,,NA,,,NA,,,NA,,,2,2,9,PracProc,,,,vowel 1,vowel 2,2,480,270775,PracticeList,kay.wav,,,,
v4_BCL_bal_d,14,1,<?xml version="1.0"?>\n<Clock xmlns:dt="urn:schemas-microsoft-com:datatypes"><Description dt:dt="string">E-Prime Primary Realtime Clock</Description><StartTime><Timestamp dt:dt="int">0</Timestamp><DateUtc dt:dt="string">2015-02-11T14:51:56Z</DateUtc></StartTime><FrequencyChanges><FrequencyChange><Frequency dt:dt="r8">2327510000</Frequency><Timestamp dt:dt="r8">909333814760</Timestamp><Current dt:dt="r8">0</Current><DateUtc dt:dt="string">2015-02-11T14:51:56Z</DateUtc></FrequencyChange></FrequencyChanges></Clock>\n,v4_BCL_bal_d-14-1,60.001,1.0.0.227,1,-743314279,2.0.10.242,2.0.10.242,02-11-2015,2/11/2015 2:51:56 PM,09:51:56,2.0.10.147,10,,,,,,,,,,,,NA,,,NA,,NA,,,NA,,,NA,,,3,2,10,PracProc,,,,vowel 1,vowel 2,1,192,271887,PracticeList,tea.wav,,,,
v4_BCL_bal_d,14,1,<?xml version="1.0"?>\n<Clock xmlns:dt="urn:schemas-microsoft-com:datatypes"><Description dt:dt="string">E-Prime Primary Realtime Clock</Description><StartTime><Timestamp dt:dt="int">0</Timestamp><DateUtc dt:dt="string">2015-02-11T14:51:56Z</DateUtc></StartTime><FrequencyChanges><FrequencyChange><Frequency dt:dt="r8">2327510000</Frequency><Timestamp dt:dt="r8">909333814760</Timestamp><Current dt:dt="r8">0</Current><DateUtc dt:dt="string">2015-02-11T14:51:56Z</DateUtc></FrequencyChange></FrequencyChanges></Clock>\n,v4_BCL_bal_d-14-1,60.001,1.0.0.227,1,-743314279,2.0.10.242,2.0.10.242,02-11-2015,2/11/2015 2:51:56 PM,09:51:56,2.0.10.147,11,,,,,,,,,,,,NA,,,NA,,NA,,,NA,,,NA,,,1,2,11,PracProc,,,,vowel 1,vowel 2,1,274,273069,PracticeList,key.wav,,,,
v4_BCL_bal_d,14,1,<?xml version="1.0"?>\n<Clock xmlns:dt="urn:schemas-microsoft-com:datatypes"><Description dt:dt="string">E-Prime Primary Realtime Clock</Description><StartTime><Timestamp dt:dt="int">0</Timestamp><DateUtc dt:dt="string">2015-02-11T14:51:56Z</DateUtc></StartTime><FrequencyChanges><FrequencyChange><Frequency dt:dt="r8">2327510000</Frequency><Timestamp dt:dt="r8">909333814760</Timestamp><Current dt:dt="r8">0</Current><DateUtc dt:dt="string">2015-02-11T14:51:56Z</DateUtc></FrequencyChange></FrequencyChanges></Clock>\n,v4_BCL_bal_d-14-1,60.001,1.0.0.227,1,-743314279,2.0.10.242,2.0.10.242,02-11-2015,2/11/2015 2:51:56 PM,09:51:56,2.0.10.147,12,,,,,,,,,,,,NA,,,NA,,NA,,,NA,,,NA,,,6,2,12,PracProc,,,,vowel 1,vowel 2,2,418,274396,PracticeList,say.wav,,,,
v4_BCL_bal_d,14,1,<?xml version="1.0"?>\n<Clock xmlns:dt="urn:schemas-microsoft-com:datatypes"><Description dt:dt="string">E-Prime Primary Realtime Clock</Description><StartTime><Timestamp dt:dt="int">0</Timestamp><DateUtc dt:dt="string">2015-02-11T14:51:56Z</DateUtc></StartTime><FrequencyChanges><FrequencyChange><Frequency dt:dt="r8">2327510000</Frequency><Timestamp dt:dt="r8">909333814760</Timestamp><Current dt:dt="r8">0</Current><DateUtc dt:dt="string">2015-02-11T14:51:56Z</DateUtc></FrequencyChange></FrequencyChanges></Clock>\n,v4_BCL_bal_d-14-1,60.001,1.0.0.227,1,-743314279,2.0.10.242,2.0.10.242,02-11-2015,2/11/2015 2:51:56 PM,09:51:56,2.0.10.147,13,,,,,,,,,,,,NA,,,NA,,NA,,,NA,,,NA,,,4,3,13,PracProc,,,,vowel 1,vowel 2,2,343,275655,PracticeList,tay.wav,,,,
v4_BCL_bal_d,14,1,<?xml version="1.0"?>\n<Clock xmlns:dt="urn:schemas-microsoft-com:datatypes"><Description dt:dt="string">E-Prime Primary Realtime Clock</Description><StartTime><Timestamp dt:dt="int">0</Timestamp><DateUtc dt:dt="string">2015-02-11T14:51:56Z</DateUtc></StartTime><FrequencyChanges><FrequencyChange><Frequency dt:dt="r8">2327510000</Frequency><Timestamp dt:dt="r8">909333814760</Timestamp><Current dt:dt="r8">0</Current><DateUtc dt:dt="string">2015-02-11T14:51:56Z</DateUtc></FrequencyChange></FrequencyChanges></Clock>\n,v4_BCL_bal_d-14-1,60.001,1.0.0.227,1,-743314279,2.0.10.242,2.0.10.242,02-11-2015,2/11/2015 2:51:56 PM,09:51:56,2.0.10.147,14,,,,,,,,,,,,NA,,,NA,,NA,,,NA,,,NA,,,2,3,14,PracProc,,,,vowel 1,vowel 2,2,245,276807,PracticeList,kay.wav,,,,
v4_BCL_bal_d,14,1,<?xml version="1.0"?>\n<Clock xmlns:dt="urn:schemas-microsoft-com:datatypes"><Description dt:dt="string">E-Prime Primary Realtime Clock</Description><StartTime><Timestamp dt:dt="int">0</Timestamp><DateUtc dt:dt="string">2015-02-11T14:51:56Z</DateUtc></StartTime><FrequencyChanges><FrequencyChange><Frequency dt:dt="r8">2327510000</Frequency><Timestamp dt:dt="r8">909333814760</Timestamp><Current dt:dt="r8">0</Current><DateUtc dt:dt="string">2015-02-11T14:51:56Z</DateUtc></FrequencyChange></FrequencyChanges></Clock>\n,v4_BCL_bal_d-14-1,60.001,1.0.0.227,1,-743314279,2.0.10.242,2.0.10.242,02-11-2015,2/11/2015 2:51:56 PM,09:51:56,2.0.10.147,15,,,,,,,,,,,,NA,,,NA,,NA,,,NA,,,NA,,,6,3,15,PracProc,,,,vowel 1,vowel 2,2,379,278107,PracticeList,say.wav,,,,
v4_BCL_bal_d,14,1,<?xml version="1.0"?>\n<Clock xmlns:dt="urn:schemas-microsoft-com:datatypes"><Description dt:dt="string">E-Prime Primary Realtime Clock</Description><StartTime><Timestamp dt:dt="int">0</Timestamp><DateUtc dt:dt="string">2015-02-11T14:51:56Z</DateUtc></StartTime><FrequencyChanges><FrequencyChange><Frequency dt:dt="r8">2327510000</Frequency><Timestamp dt:dt="r8">909333814760</Timestamp><Current dt:dt="r8">0</Current><DateUtc dt:dt="string">2015-02-11T14:51:56Z</DateUtc></FrequencyChange></FrequencyChanges></Clock>\n,v4_BCL_bal_d-14-1,60.001,1.0.0.227,1,-743314279,2.0.10.242,2.0.10.242,02-11-2015,2/11/2015 2:51:56 PM,09:51:56,2.0.10.147,16,,,,,,,,,,,,NA,,,NA,,NA,,,NA,,,NA,,,1,3,16,PracProc,,,,vowel 1,vowel 2,1,441,279469,PracticeList,key.wav,,,,
v4_BCL_bal_d,14,1,<?xml version="1.0"?>\n<Clock xmlns:dt="urn:schemas-microsoft-com:datatypes"><Description dt:dt="string">E-Prime Primary Realtime Clock</Description><StartTime><Timestamp dt:dt="int">0</Timestamp><DateUtc dt:dt="string">2015-02-11T14:51:56Z</DateUtc></StartTime><FrequencyChanges><FrequencyChange><Frequency dt:dt="r8">2327510000</Frequency><Timestamp dt:dt="r8">909333814760</Timestamp><Current dt:dt="r8">0</Current><DateUtc dt:dt="string">2015-02-11T14:51:56Z</DateUtc></FrequencyChange></FrequencyChanges></Clock>\n,v4_BCL_bal_d-14-1,60.001,1.0.0.227,1,-743314279,2.0.10.242,2.0.10.242,02-11-2015,2/11/2015 2:51:56 PM,09:51:56,2.0.10.147,17,,,,,,,,,,,,NA,,,NA,,NA,,,NA,,,NA,,,5,3,17,PracProc,,,,vowel 1,vowel 2,1,354,280732,PracticeList,see.wav,,,,
v4_BCL_bal_d,14,1,<?xml version="1.0"?>\n<Clock xmlns:dt="urn:schemas-microsoft-com:datatypes"><Description dt:dt="string">E-Prime Primary Realtime Clock</Description><StartTime><Timestamp dt:dt="int">0</Timestamp><DateUtc dt:dt="string">2015-02-11T14:51:56Z</DateUtc></StartTime><FrequencyChanges><FrequencyChange><Frequency dt:dt="r8">2327510000</Frequency><Timestamp dt:dt="r8">909333814760</Timestamp><Current dt:dt="r8">0</Current><DateUtc dt:dt="string">2015-02-11T14:51:56Z</DateUtc></FrequencyChange></FrequencyChanges></Clock>\n,v4_BCL_bal_d-14-1,60.001,1.0.0.227,1,-743314279,2.0.10.242,2.0.10.242,02-11-2015,2/11/2015 2:51:56 PM,09:51:56,2.0.10.147,18,,,,,,,,,,,,NA,,,NA,,NA,,,NA,,,NA,,,3,3,18,PracProc,,,,vowel 1,vowel 2,1,299,281944,PracticeList,tea.wav,,,,
v4_BCL_bal_d,14,1,<?xml version="1.0"?>\n<Clock xmlns:dt="urn:schemas-microsoft-com:datatypes"><Description dt:dt="string">E-Prime Primary Realtime Clock</Description><StartTime><Timestamp dt:dt="int">0</Timestamp><DateUtc dt:dt="string">2015-02-11T14:51:56Z</DateUtc></StartTime><FrequencyChanges><FrequencyChange><Frequency dt:dt="r8">2327510000</Frequency><Timestamp dt:dt="r8">909333814760</Timestamp><Current dt:dt="r8">0</Current><DateUtc dt:dt="string">2015-02-11T14:51:56Z</DateUtc></FrequencyChange></FrequencyChanges></Clock>\n,v4_BCL_bal_d-14-1,60.001,1.0.0.227,1,-743314279,2.0.10.242,2.0.10.242,02-11-2015,2/11/2015 2:51:56 PM,09:51:56,2.0.10.147,19,,,34,1,1,,,,,,,2,,,g,,0.25,,,8.41,,,29.83,,,,,,ExposureProc,,,,vowel 1,vowel 2,,,,Block1,g2_f0_8_41_f2_29_83_dur_0_250_num_505.wav,,,,
v4_BCL_bal_d,14,1,<?xml version="1.0"?>\n<Clock xmlns:dt="urn:schemas-microsoft-com:datatypes"><Description dt:dt="string">E-Prime Primary Realtime Clock</Description><StartTime><Timestamp dt:dt="int">0</Timestamp><DateUtc dt:dt="string">2015-02-11T14:51:56Z</DateUtc></StartTime><FrequencyChanges><FrequencyChange><Frequency dt:dt="r8">2327510000</Frequency><Timestamp dt:dt="r8">909333814760</Timestamp><Current dt:dt="r8">0</Current><DateUtc dt:dt="string">2015-02-11T14:51:56Z</DateUtc></FrequencyChange></FrequencyChanges></Clock>\n,v4_BCL_bal_d-14-1,60.001,1.0.0.227,1,-743314279,2.0.10.242,2.0.10.242,02-11-2015,2/11/2015 2:51:56 PM,09:51:56,2.0.10.147,20,,,7,1,2,,,,,,,1,,,b,,0.253,,,9.88,,,30.22,,,,,,ExposureProc,,,,vowel 1,vowel 2,,,,Block1,b1_f0_9_88_f2_30_22_dur_0_253_num_52.wav,,,,
v4_BCL_bal_d,14,1,<?xml version="1.0"?>\n<Clock xmlns:dt="urn:schemas-microsoft-com:datatypes"><Description dt:dt="string">E-Prime Primary Realtime Clock</Description><StartTime><Timestamp dt:dt="int">0</Timestamp><DateUtc dt:dt="string">2015-02-11T14:51:56Z</DateUtc></StartTime><FrequencyChanges><FrequencyChange><Frequency dt:dt="r8">2327510000</Frequency><Timestamp dt:dt="r8">909333814760</Timestamp><Current dt:dt="r8">0</Current><DateUtc dt:dt="string">2015-02-11T14:51:56Z</DateUtc></FrequencyChange></FrequencyChanges></Clock>\n,v4_BCL_bal_d-14-1,60.001,1.0.0.227,1,-743314279,2.0.10.242,2.0.10.242,02-11-2015,2/11/2015 2:51:56 PM,09:51:56,2.0.10.147,21,,,16,1,3,,,,,,,2,,,d,,0.252,,,9.56,,,28.47,,,,,,ExposureProc,,,,vowel 1,vowel 2,,,,Block1,d2_f0_9_56_f2_28_47_dur_0_252_num_415.wav,,,,
v4_BCL_bal_d,14,1,<?xml version="1.0"?>\n<Clock xmlns:dt="urn:schemas-microsoft-com:datatypes"><Description dt:dt="string">E-Prime Primary Realtime Clock</Description><StartTime><Timestamp dt:dt="int">0</Timestamp><DateUtc dt:dt="string">2015-02-11T14:51:56Z</DateUtc></StartTime><FrequencyChanges><FrequencyChange><Frequency dt:dt="r8">2327510000</Frequency><Timestamp dt:dt="r8">909333814760</Timestamp><Current dt:dt="r8">0</Current><DateUtc dt:dt="string">2015-02-11T14:51:56Z</DateUtc></FrequencyChange></FrequencyChanges></Clock>\n,v4_BCL_bal_d-14-1,60.001,1.0.0.227,1,-743314279,2.0.10.242,2.0.10.242,02-11-2015,2/11/2015 2:51:56 PM,09:51:56,2.0.10.147,22,,,9,1,4,,,,,,,2,,,b,,0.249,,,7.5,,,31.1,,,,,,ExposureProc,,,,vowel 1,vowel 2,,,,Block1,b2_f0_7_50_f2_31_10_dur_0_249_num_349.wav,,,,
v4_BCL_bal_d,14,1,<?xml version="1.0"?>\n<Clock xmlns:dt="urn:schemas-microsoft-com:datatypes"><Description dt:dt="string">E-Prime Primary Realtime Clock</Description><StartTime><Timestamp dt:dt="int">0</Timestamp><DateUtc dt:dt="string">2015-02-11T14:51:56Z</DateUtc></StartTime><FrequencyChanges><FrequencyChange><Frequency dt:dt="r8">2327510000</Frequency><Timestamp dt:dt="r8">909333814760</Timestamp><Current dt:dt="r8">0</Current><DateUtc dt:dt="string">2015-02-11T14:51:56Z</DateUtc></FrequencyChange></FrequencyChanges></Clock>\n,v4_BCL_bal_d-14-1,60.001,1.0.0.227,1,-743314279,2.0.10.242,2.0.10.242,02-11-2015,2/11/2015 2:51:56 PM,09:51:56,2.0.10.147,23,,,27,1,5,,,,,,,1,,,g,,0.249,,,9.68,,,29.89,,,,,,ExposureProc,,,,vowel 1,vowel 2,,,,Block1,g1_f0_9_68_f2_29_89_dur_0_249_num_283.wav,,,,
v4_BCL_bal_d,14,1,<?xml version="1.0"?>\n<Clock xmlns:dt="urn:schemas-microsoft-com:datatypes"><Description dt:dt="string">E-Prime Primary Realtime Clock</Description><StartTime><Timestamp dt:dt="int">0</Timestamp><DateUtc dt:dt="string">2015-02-11T14:51:56Z</DateUtc></StartTime><FrequencyChanges><FrequencyChange><Frequency dt:dt="r8">2327510000</Frequency><Timestamp dt:dt="r8">909333814760</Timestamp><Current dt:dt="r8">0</Current><DateUtc dt:dt="string">2015-02-11T14:51:56Z</DateUtc></FrequencyChange></FrequencyChanges></Clock>\n,v4_BCL_bal_d-14-1,60.001,1.0.0.227,1,-743314279,2.0.10.242,2.0.10.242,02-11-2015,2/11/2015 2:51:56 PM,09:51:56,2.0.10.147,24,,,12,1,6,,,,,,,2,,,b,,0.249,,,8.68,,,30.12,,,,,,ExposureProc,,,,vowel 1,vowel 2,,,,Block1,b2_f0_8_68_f2_30_12_dur_0_249_num_373.wav,,,,
v4_BCL_bal_d,14,1,<?xml version="1.0"?>\n<Clock xmlns:dt="urn:schemas-microsoft-com:datatypes"><Description dt:dt="string">E-Prime Primary Realtime Clock</Description><StartTime><Timestamp dt:dt="int">0</Timestamp><DateUtc dt:dt="string">2015-02-11T14:51:56Z</DateUtc></StartTime><FrequencyChanges><FrequencyChange><Frequency dt:dt="r8">2327510000</Frequency><Timestamp dt:dt="r8">909333814760</Timestamp><Current dt:dt="r8">0</Current><DateUtc dt:dt="string">2015-02-11T14:51:56Z</DateUtc></FrequencyChange></FrequencyChanges></Clock>\n,v4_BCL_bal_d-14-1,60.001,1.0.0.227,1,-743314279,2.0.10.242,2.0.10.242,02-11-2015,2/11/2015 2:51:56 PM,09:51:56,2.0.10.147,25,,,13,1,7,,,,,,,1,,,d,,0.249,,,9.78,,,30.81,,,,,,ExposureProc,,,,vowel 1,vowel 2,,,,Block1,d1_f0_9_78_f2_30_81_dur_0_249_num_104.wav,,,,
v4_BCL_bal_d,14,1,<?xml version="1.0"?>\n<Clock xmlns:dt="urn:schemas-microsoft-com:datatypes"><Description dt:dt="string">E-Prime Primary Realtime Clock</Description><StartTime><Timestamp dt:dt="int">0</Timestamp><DateUtc dt:dt="string">2015-02-11T14:51:56Z</DateUtc></StartTime><FrequencyChanges><FrequencyChange><Frequency dt:dt="r8">2327510000</Frequency><Timestamp dt:dt="r8">909333814760</Timestamp><Current dt:dt="r8">0</Current><DateUtc dt:dt="string">2015-02-11T14:51:56Z</DateUtc></FrequencyChange></FrequencyChanges></Clock>\n,v4_BCL_bal_d-14-1,60.001,1.0.0.227,1,-743314279,2.0.10.242,2.0.10.242,02-11-2015,2/11/2015 2:51:56 PM,09:51:56,2.0.10.147,26,,,22,1,8,,,,,,,1,,,d,,0.252,,,9.66,,,29.68,,,,,,ExposureProc,,,,vowel 1,vowel 2,,,,Block1,d1_f0_9_66_f2_29_68_dur_0_252_num_145.wav,,,,
v4_BCL_bal_d,14,1,<?xml version="1.0"?>\n<Clock xmlns:dt="urn:schemas-microsoft-com:datatypes"><Description dt:dt="string">E-Prime Primary Realtime Clock</Description><StartTime><Timestamp dt:dt="int">0</Timestamp><DateUtc dt:dt="string">2015-02-11T14:51:56Z</DateUtc></StartTime><FrequencyChanges><FrequencyChange><Frequency dt:dt="r8">2327510000</Frequency><Timestamp dt:dt="r8">909333814760</Timestamp><Current dt:dt="r8">0</Current><DateUtc dt:dt="string">2015-02-11T14:51:56Z</DateUtc></FrequencyChange></FrequencyChanges></Clock>\n,v4_BCL_bal_d-14-1,60.001,1.0.0.227,1,-743314279,2.0.10.242,2.0.10.242,02-11-2015,2/11/2015 2:51:56 PM,09:51:56,2.0.10.147,27,,,15,1,9,,,,,,,2,,,d,,0.249,,,8.16,,,30.1,,,,,,ExposureProc,,,,vowel 1,vowel 2,,,,Block1,d2_f0_8_16_f2_30_10_dur_0_249_num_410.wav,,,,
v4_BCL_bal_d,14,1,<?xml version="1.0"?>\n<Clock xmlns:dt="urn:schemas-microsoft-com:datatypes"><Description dt:dt="string">E-Prime Primary Realtime Clock</Description><StartTime><Timestamp dt:dt="int">0</Timestamp><DateUtc dt:dt="string">2015-02-11T14:51:56Z</DateUtc></StartTime><FrequencyChanges><FrequencyChange><Frequency dt:dt="r8">2327510000</Frequency><Timestamp dt:dt="r8">909333814760</Timestamp><Current dt:dt="r8">0</Current><DateUtc dt:dt="string">2015-02-11T14:51:56Z</DateUtc></FrequencyChange></FrequencyChanges></Clock>\n,v4_BCL_bal_d-14-1,60.001,1.0.0.227,1,-743314279,2.0.10.242,2.0.10.242,02-11-2015,2/11/2015 2:51:56 PM,09:51:56,2.0.10.147,28,,,23,1,10,,,,,,,2,,,d,,0.251,,,8.23,,,30.53,,,,,,ExposureProc,,,,vowel 1,vowel 2,,,,Block1,d2_f0_8_23_f2_30_53_dur_0_251_num_464.wav,,,,
v4_BCL_bal_d,14,1,<?xml version="1.0"?>\n<Clock xmlns:dt="urn:schemas-microsoft-com:datatypes"><Description dt:dt="string">E-Prime Primary Realtime Clock</Description><StartTime><Timestamp dt:dt="int">0</Timestamp><DateUtc dt:dt="string">2015-02-11T14:51:56Z</DateUtc></StartTime><FrequencyChanges><FrequencyChange><Frequency dt:dt="r8">2327510000</Frequency><Timestamp dt:dt="r8">909333814760</Timestamp><Current dt:dt="r8">0</Current><DateUtc dt:dt="string">2015-02-11T14:51:56Z</DateUtc></FrequencyChange></FrequencyChanges></Clock>\n,v4_BCL_bal_d-14-1,60.001,1.0.0.227,1,-743314279,2.0.10.242,2.0.10.242,02-11-2015,2/11/2015 2:51:56 PM,09:51:56,2.0.10.147,29,,,24,1,11,,,,,,,2,,,d,,0.247,,,8.76,,,29.49,,,,,,ExposureProc,,,,vowel 1,vowel 2,,,,Block1,d2_f0_8_76_f2_29_49_dur_0_247_num_435.wav,,,,
v4_BCL_bal_d,14,1,<?xml version="1.0"?>\n<Clock xmlns:dt="urn:schemas-microsoft-com:datatypes"><Description dt:dt="string">E-Prime Primary Realtime Clock</Description><StartTime><Timestamp dt:dt="int">0</Timestamp><DateUtc dt:dt="string">2015-02-11T14:51:56Z</DateUtc></StartTime><FrequencyChanges><FrequencyChange><Frequency dt:dt="r8">2327510000</Frequency><Timestamp dt:dt="r8">909333814760</Timestamp><Current dt:dt="r8">0</Current><DateUtc dt:dt="string">2015-02-11T14:51:56Z</DateUtc></FrequencyChange></FrequencyChanges></Clock>\n,v4_BCL_bal_d-14-1,60.001,1.0.0.227,1,-743314279,2.0.10.242,2.0.10.242,02-11-2015,2/11/2015 2:51:56 PM,09:51:56,2.0.10.147,30,,,10,1,12,,,,,,,1,,,b,,0.251,,,9.91,,,29.71,,,,,,ExposureProc,,,,vowel 1,vowel 2,,,,Block1,b1_f0_9_91_f2_29_71_dur_0_251_num_97.wav,,,,
v4_BCL_bal_d,14,1,<?xml version="1.0"?>\n<Clock xmlns:dt="urn:schemas-microsoft-com:datatypes"><Description dt:dt="string">E-Prime Primary Realtime Clock</Description><StartTime><Timestamp dt:dt="int">0</Timestamp><DateUtc dt:dt="string">2015-02-11T14:51:56Z</DateUtc></StartTime><FrequencyChanges><FrequencyChange><Frequency dt:dt="r8">2327510000</Frequency><Timestamp dt:dt="r8">909333814760</Timestamp><Current dt:dt="r8">0</Current><DateUtc dt:dt="string">2015-02-11T14:51:56Z</DateUtc></FrequencyChange></FrequencyChanges></Clock>\n,v4_BCL_bal_d-14-1,60.001,1.0.0.227,1,-743314279,2.0.10.242,2.0.10.242,02-11-2015,2/11/2015 2:51:56 PM,09:51:56,2.0.10.147,31,,,4,1,13,,,,,,,1,,,b,,0.248,,,10.04,,,30.78,,,,,,ExposureProc,,,,vowel 1,vowel 2,,,,Block1,b1_f0_10_04_f2_30_78_dur_0_248_num_61.wav,,,,
v4_BCL_bal_d,14,1,<?xml version="1.0"?>\n<Clock xmlns:dt="urn:schemas-microsoft-com:datatypes"><Description dt:dt="string">E-Prime Primary Realtime Clock</Description><StartTime><Timestamp dt:dt="int">0</Timestamp><DateUtc dt:dt="string">2015-02-11T14:51:56Z</DateUtc></StartTime><FrequencyChanges><FrequencyChange><Frequency dt:dt="r8">2327510000</Frequency><Timestamp dt:dt="r8">909333814760</Timestamp><Current dt:dt="r8">0</Current><DateUtc dt:dt="string">2015-02-11T14:51:56Z</DateUtc></FrequencyChange></FrequencyChanges></Clock>\n,v4_BCL_bal_d-14-1,60.001,1.0.0.227,1,-743314279,2.0.10.242,2.0.10.242,02-11-2015,2/11/2015 2:51:56 PM,09:51:56,2.0.10.147,32,,,2,1,14,,,,,,,1,,,b,,0.249,,,10.41,,,30.13,,,,,,ExposureProc,,,,vowel 1,vowel 2,,,,Block1,b1_f0_10_41_f2_30_13_dur_0_249_num_100.wav,,,,
v4_BCL_bal_d,14,1,<?xml version="1.0"?>\n<Clock xmlns:dt="urn:schemas-microsoft-com:datatypes"><Description dt:dt="string">E-Prime Primary Realtime Clock</Description><StartTime><Timestamp dt:dt="int">0</Timestamp><DateUtc dt:dt="string">2015-02-11T14:51:56Z</DateUtc></StartTime><FrequencyChanges><FrequencyChange><Frequency dt:dt="r8">2327510000</Frequency><Timestamp dt:dt="r8">909333814760</Timestamp><Current dt:dt="r8">0</Current><DateUtc dt:dt="string">2015-02-11T14:51:56Z</DateUtc></FrequencyChange></FrequencyChanges></Clock>\n,v4_BCL_bal_d-14-1,60.001,1.0.0.227,1,-743314279,2.0.10.242,2.0.10.242,02-11-2015,2/11/2015 2:51:56 PM,09:51:56,2.0.10.147,33,,,20,1,15,,,,,,,1,,,d,,0.244,,,9.58,,,30.95,,,,,,ExposureProc,,,,vowel 1,vowel 2,,,,Block1,d1_f0_9_58_f2_30_95_dur_0_244_num_101.wav,,,,
v4_BCL_bal_d,14,1,<?xml version="1.0"?>\n<Clock xmlns:dt="urn:schemas-microsoft-com:datatypes"><Description dt:dt="string">E-Prime Primary Realtime Clock</Description><StartTime><Timestamp dt:dt="int">0</Timestamp><DateUtc dt:dt="string">2015-02-11T14:51:56Z</DateUtc></StartTime><FrequencyChanges><FrequencyChange><Frequency dt:dt="r8">2327510000</Frequency><Timestamp dt:dt="r8">909333814760</Timestamp><Current dt:dt="r8">0</Current><DateUtc dt:dt="string">2015-02-11T14:51:56Z</DateUtc></FrequencyChange></FrequencyChanges></Clock>\n,v4_BCL_bal_d-14-1,60.001,1.0.0.227,1,-743314279,2.0.10.242,2.0.10.242,02-11-2015,2/11/2015 2:51:56 PM,09:51:56,2.0.10.147,34,,,36,1,16,,,,,,,2,,,g,,0.251,,,9.48,,,28.04,,,,,,ExposureProc,,,,vowel 1,vowel 2,,,,Block1,g2_f0_9_48_f2_28_04_dur_0_251_num_554.wav,,,,
v4_BCL_bal_d,14,1,<?xml version="1.0"?>\n<Clock xmlns:dt="urn:schemas-microsoft-com:datatypes"><Description dt:dt="string">E-Prime Primary Realtime Clock</Description><StartTime><Timestamp dt:dt="int">0</Timestamp><DateUtc dt:dt="string">2015-02-11T14:51:56Z</DateUtc></StartTime><FrequencyChanges><FrequencyChange><Frequency dt:dt="r8">2327510000</Frequency><Timestamp dt:dt="r8">909333814760</Timestamp><Current dt:dt="r8">0</Current><DateUtc dt:dt="string">2015-02-11T14:51:56Z</DateUtc></FrequencyChange></FrequencyChanges></Clock>\n,v4_BCL_bal_d-14-1,60.001,1.0.0.227,1,-743314279,2.0.10.242,2.0.10.242,02-11-2015,2/11/2015 2:51:56 PM,09:51:56,2.0.10.147,35,,,11,1,17,,,,,,,2,,,b,,0.248,,,9.94,,,28.91,,,,,,ExposureProc,,,,vowel 1,vowel 2,,,,Block1,b2_f0_9_94_f2_28_91_dur_0_248_num_364.wav,,,,
v4_BCL_bal_d,14,1,<?xml version="1.0"?>\n<Clock xmlns:dt="urn:schemas-microsoft-com:datatypes"><Description dt:dt="string">E-Prime Primary Realtime Clock</Description><StartTime><Timestamp dt:dt="int">0</Timestamp><DateUtc dt:dt="string">2015-02-11T14:51:56Z</DateUtc></StartTime><FrequencyChanges><FrequencyChange><Frequency dt:dt="r8">2327510000</Frequency><Timestamp dt:dt="r8">909333814760</Timestamp><Current dt:dt="r8">0</Current><DateUtc dt:dt="string">2015-02-11T14:51:56Z</DateUtc></FrequencyChange></FrequencyChanges></Clock>\n,v4_BCL_bal_d-14-1,60.001,1.0.0.227,1,-743314279,2.0.10.242,2.0.10.242,02-11-2015,2/11/2015 2:51:56 PM,09:51:56,2.0.10.147,36,,,1,1,18,,,,,,,2,,,b,,0.252,,,8.56,,,29.37,,,,,,ExposureProc,,,,Vowel 1,Vowel 2,,,,Block1,b2_f0_8_56_f2_29_37_dur_0_252_num_346.wav,,,,
v4_BCL_bal_d,14,1,<?xml version="1.0"?>\n<Clock xmlns:dt="urn:schemas-microsoft-com:datatypes"><Description dt:dt="string">E-Prime Primary Realtime Clock</Description><StartTime><Timestamp dt:dt="int">0</Timestamp><DateUtc dt:dt="string">2015-02-11T14:51:56Z</DateUtc></StartTime><FrequencyChanges><FrequencyChange><Frequency dt:dt="r8">2327510000</Frequency><Timestamp dt:dt="r8">909333814760</Timestamp><Current dt:dt="r8">0</Current><DateUtc dt:dt="string">2015-02-11T14:51:56Z</DateUtc></FrequencyChange></FrequencyChanges></Clock>\n,v4_BCL_bal_d-14-1,60.001,1.0.0.227,1,-743314279,2.0.10.242,2.0.10.242,02-11-2015,2/11/2015 2:51:56 PM,09:51:56,2.0.10.147,37,,,8,1,19,,,,,,,2,,,b,,0.252,,,9.34,,,28.86,,,,,,ExposureProc,,,,vowel 1,vowel 2,,,,Block1,b2_f0_9_34_f2_28_86_dur_0_252_num_400.wav,,,,
v4_BCL_bal_d,14,1,<?xml version="1.0"?>\n<Clock xmlns:dt="urn:schemas-microsoft-com:datatypes"><Description dt:dt="string">E-Prime Primary Realtime Clock</Description><StartTime><Timestamp dt:dt="int">0</Timestamp><DateUtc dt:dt="string">2015-02-11T14:51:56Z</DateUtc></StartTime><FrequencyChanges><FrequencyChange><Frequency dt:dt="r8">2327510000</Frequency><Timestamp dt:dt="r8">909333814760</Timestamp><Current dt:dt="r8">0</Current><DateUtc dt:dt="string">2015-02-11T14:51:56Z</DateUtc></FrequencyChange></FrequencyChanges></Clock>\n,v4_BCL_bal_d-14-1,60.001,1.0.0.227,1,-743314279,2.0.10.242,2.0.10.242,02-11-2015,2/11/2015 2:51:56 PM,09:51:56,2.0.10.147,38,,,14,1,20,,,,,,,1,,,d,,0.251,,,9.7,,,30.64,,,,,,ExposureProc,,,,vowel 1,vowel 2,,,,Block1,d1_f0_9_70_f2_30_64_dur_0_251_num_125.wav,,,,
v4_BCL_bal_d,14,1,<?xml version="1.0"?>\n<Clock xmlns:dt="urn:schemas-microsoft-com:datatypes"><Description dt:dt="string">E-Prime Primary Realtime Clock</Description><StartTime><Timestamp dt:dt="int">0</Timestamp><DateUtc dt:dt="string">2015-02-11T14:51:56Z</DateUtc></StartTime><FrequencyChanges><FrequencyChange><Frequency dt:dt="r8">2327510000</Frequency><Timestamp dt:dt="r8">909333814760</Timestamp><Current dt:dt="r8">0</Current><DateUtc dt:dt="string">2015-02-11T14:51:56Z</DateUtc></FrequencyChange></FrequencyChanges></Clock>\n,v4_BCL_bal_d-14-1,60.001,1.0.0.227,1,-743314279,2.0.10.242,2.0.10.242,02-11-2015,2/11/2015 2:51:56 PM,09:51:56,2.0.10.147,39,,,25,1,21,,,,,,,1,,,g,,0.247,,,9.86,,,30.57,,,,,,ExposureProc,,,,vowel 1,vowel 2,,,,Block1,g1_f0_9_86_f2_30_57_dur_0_247_num_244.wav,,,,
v4_BCL_bal_d,14,1,<?xml version="1.0"?>\n<Clock xmlns:dt="urn:schemas-microsoft-com:datatypes"><Description dt:dt="string">E-Prime Primary Realtime Clock</Description><StartTime><Timestamp dt:dt="int">0</Timestamp><DateUtc dt:dt="string">2015-02-11T14:51:56Z</DateUtc></StartTime><FrequencyChanges><FrequencyChange><Frequency dt:dt="r8">2327510000</Frequency><Timestamp dt:dt="r8">909333814760</Timestamp><Current dt:dt="r8">0</Current><DateUtc dt:dt="string">2015-02-11T14:51:56Z</DateUtc></FrequencyChange></FrequencyChanges></Clock>\n,v4_BCL_bal_d-14-1,60.001,1.0.0.227,1,-743314279,2.0.10.242,2.0.10.242,02-11-2015,2/11/2015 2:51:56 PM,09:51:56,2.0.10.147,40,,,6,1,22,,,,,,,2,,,b,,0.251,,,8.93,,,29.96,,,,,,ExposureProc,,,,vowel 1,vowel 2,,,,Block1,b2_f0_8_93_f2_29_96_dur_0_251_num_332.wav,,,,
v4_BCL_bal_d,14,1,<?xml version="1.0"?>\n<Clock xmlns:dt="urn:schemas-microsoft-com:datatypes"><Description dt:dt="string">E-Prime Primary Realtime Clock</Description><StartTime><Timestamp dt:dt="int">0</Timestamp><DateUtc dt:dt="string">2015-02-11T14:51:56Z</DateUtc></StartTime><FrequencyChanges><FrequencyChange><Frequency dt:dt="r8">2327510000</Frequency><Timestamp dt:dt="r8">909333814760</Timestamp><Current dt:dt="r8">0</Current><DateUtc dt:dt="string">2015-02-11T14:51:56Z</DateUtc></FrequencyChange></FrequencyChanges></Clock>\n,v4_BCL_bal_d-14-1,60.001,1.0.0.227,1,-743314279,2.0.10.242,2.0.10.242,02-11-2015,2/11/2015 2:51:56 PM,09:51:56,2.0.10.147,41,,,18,1,23,,,,,,,1,,,d,,0.244,,,9.82,,,30.89,,,,,,ExposureProc,,,,vowel 1,vowel 2,,,,Block1,d1_f0_9_82_f2_30_89_dur_0_244_num_189.wav,,,,
v4_BCL_bal_d,14,1,<?xml version="1.0"?>\n<Clock xmlns:dt="urn:schemas-microsoft-com:datatypes"><Description dt:dt="string">E-Prime Primary Realtime Clock</Description><StartTime><Timestamp dt:dt="int">0</Timestamp><DateUtc dt:dt="string">2015-02-11T14:51:56Z</DateUtc></StartTime><FrequencyChanges><FrequencyChange><Frequency dt:dt="r8">2327510000</Frequency><Timestamp dt:dt="r8">909333814760</Timestamp><Current dt:dt="r8">0</Current><DateUtc dt:dt="string">2015-02-11T14:51:56Z</DateUtc></FrequencyChange></FrequencyChanges></Clock>\n,v4_BCL_bal_d-14-1,60.001,1.0.0.227,1,-743314279,2.0.10.242,2.0.10.242,02-11-2015,2/11/2015 2:51:56 PM,09:51:56,2.0.10.147,42,,,30,1,24,,,,,,,2,,,g,,0.25,,,8.83,,,29.58,,,,,,ExposureProc,,,,vowel 1,vowel 2,,,,Block1,g2_f0_8_83_f2_29_58_dur_0_250_num_511.wav,,,,
v4_BCL_bal_d,14,1,<?xml version="1.0"?>\n<Clock xmlns:dt="urn:schemas-microsoft-com:datatypes"><Description dt:dt="string">E-Prime Primary Realtime Clock</Description><StartTime><Timestamp dt:dt="int">0</Timestamp><DateUtc dt:dt="string">2015-02-11T14:51:56Z</DateUtc></StartTime><FrequencyChanges><FrequencyChange><Frequency dt:dt="r8">2327510000</Frequency><Timestamp dt:dt="r8">909333814760</Timestamp><Current dt:dt="r8">0</Current><DateUtc dt:dt="string">2015-02-11T14:51:56Z</DateUtc></FrequencyChange></FrequencyChanges></Clock>\n,v4_BCL_bal_d-14-1,60.001,1.0.0.227,1,-743314279,2.0.10.242,2.0.10.242,02-11-2015,2/11/2015 2:51:56 PM,09:51:56,2.0.10.147,43,,,19,1,25,,,,,,,2,,,d,,0.246,,,9.05,,,29.08,,,,,,ExposureProc,,,,vowel 1,vowel 2,,,,Block1,d2_f0_9_05_f2_29_08_dur_0_246_num_447.wav,,,,
v4_BCL_bal_d,14,1,<?xml version="1.0"?>\n<Clock xmlns:dt="urn:schemas-microsoft-com:datatypes"><Description dt:dt="string">E-Prime Primary Realtime Clock</Description><StartTime><Timestamp dt:dt="int">0</Timestamp><DateUtc dt:dt="string">2015-02-11T14:51:56Z</DateUtc></StartTime><FrequencyChanges><FrequencyChange><Frequency dt:dt="r8">2327510000</Frequency><Timestamp dt:dt="r8">909333814760</Timestamp><Current dt:dt="r8">0</Current><DateUtc dt:dt="string">2015-02-11T14:51:56Z</DateUtc></FrequencyChange></FrequencyChanges></Clock>\n,v4_BCL_bal_d-14-1,60.001,1.0.0.227,1,-743314279,2.0.10.242,2.0.10.242,02-11-2015,2/11/2015 2:51:56 PM,09:51:56,2.0.10.147,44,,,32,1,26,,,,,,,2,,,g,,0.251,,,8.34,,,30.25,,,,,,ExposureProc,,,,vowel 1,vowel 2,,,,Block1,g2_f0_8_34_f2_30_25_dur_0_251_num_599.wav,,,,
v4_BCL_bal_d,14,1,<?xml version="1.0"?>\n<Clock xmlns:dt="urn:schemas-microsoft-com:datatypes"><Description dt:dt="string">E-Prime Primary Realtime Clock</Description><StartTime><Timestamp dt:dt="int">0</Timestamp><DateUtc dt:dt="string">2015-02-11T14:51:56Z</DateUtc></StartTime><FrequencyChanges><FrequencyChange><Frequency dt:dt="r8">2327510000</Frequency><Timestamp dt:dt="r8">909333814760</Timestamp><Current dt:dt="r8">0</Current><DateUtc dt:dt="string">2015-02-11T14:51:56Z</DateUtc></FrequencyChange></FrequencyChanges></Clock>\n,v4_BCL_bal_d-14-1,60.001,1.0.0.227,1,-743314279,2.0.10.242,2.0.10.242,02-11-2015,2/11/2015 2:51:56 PM,09:51:56,2.0.10.147,45,,,28,1,27,,,,,,,2,,,g,,0.249,,,7,,,31.82,,,,,,ExposureProc,,,,vowel 1,vowel 2,,,,Block1,g2_f0_7_00_f2_31_82_dur_0_249_num_546.wav,,,,
v4_BCL_bal_d,14,1,<?xml version="1.0"?>\n<Clock xmlns:dt="urn:schemas-microsoft-com:datatypes"><Description dt:dt="string">E-Prime Primary Realtime Clock</Description><StartTime><Timestamp dt:dt="int">0</Timestamp><DateUtc dt:dt="string">2015-02-11T14:51:56Z</DateUtc></StartTime><FrequencyChanges><FrequencyChange><Frequency dt:dt="r8">2327510000</Frequency><Timestamp dt:dt="r8">909333814760</Timestamp><Current dt:dt="r8">0</Current><DateUtc dt:dt="string">2015-02-11T14:51:56Z</DateUtc></FrequencyChange></FrequencyChanges></Clock>\n,v4_BCL_bal_d-14-1,60.001,1.0.0.227,1,-743314279,2.0.10.242,2.0.10.242,02-11-2015,2/11/2015 2:51:56 PM,09:51:56,2.0.10.147,46,,,31,1,28,,,,,,,1,,,g,,0.248,,,9.49,,,30.67,,,,,,ExposureProc,,,,vowel 1,vowel 2,,,,Block1,g1_f0_9_49_f2_30_67_dur_0_248_num_276.wav,,,,
v4_BCL_bal_d,14,1,<?xml version="1.0"?>\n<Clock xmlns:dt="urn:schemas-microsoft-com:datatypes"><Description dt:dt="string">E-Prime Primary Realtime Clock</Description><StartTime><Timestamp dt:dt="int">0</Timestamp><DateUtc dt:dt="string">2015-02-11T14:51:56Z</DateUtc></StartTime><FrequencyChanges><FrequencyChange><Frequency dt:dt="r8">2327510000</Frequency><Timestamp dt:dt="r8">909333814760</Timestamp><Current dt:dt="r8">0</Current><DateUtc dt:dt="string">2015-02-11T14:51:56Z</DateUtc></FrequencyChange></FrequencyChanges></Clock>\n,v4_BCL_bal_d-14-1,60.001,1.0.0.227,1,-743314279,2.0.10.242,2.0.10.242,02-11-2015,2/11/2015 2:51:56 PM,09:51:56,2.0.10.147,47,,,17,1,29,,,,,,,2,,,d,,0.245,,,8.14,,,29.86,,,,,,ExposureProc,,,,vowel 1,vowel 2,,,,Block1,d2_f0_8_14_f2_29_86_dur_0_245_num_455.wav,,,,
v4_BCL_bal_d,14,1,<?xml version="1.0"?>\n<Clock xmlns:dt="urn:schemas-microsoft-com:datatypes"><Description dt:dt="string">E-Prime Primary Realtime Clock</Description><StartTime><Timestamp dt:dt="int">0</Timestamp><DateUtc dt:dt="string">2015-02-11T14:51:56Z</DateUtc></StartTime><FrequencyChanges><FrequencyChange><Frequency dt:dt="r8">2327510000</Frequency><Timestamp dt:dt="r8">909333814760</Timestamp><Current dt:dt="r8">0</Current><DateUtc dt:dt="string">2015-02-11T14:51:56Z</DateUtc></FrequencyChange></FrequencyChanges></Clock>\n,v4_BCL_bal_d-14-1,60.001,1.0.0.227,1,-743314279,2.0.10.242,2.0.10.242,02-11-2015,2/11/2015 2:51:56 PM,09:51:56,2.0.10.147,48,,,29,1,30,,,,,,,1,,,g,,0.246,,,9.52,,,31.14,,,,,,ExposureProc,,,,vowel 1,vowel 2,,,,Block1,g1_f0_9_52_f2_31_14_dur_0_246_num_225.wav,,,,
v4_BCL_bal_d,14,1,<?xml version="1.0"?>\n<Clock xmlns:dt="urn:schemas-microsoft-com:datatypes"><Description dt:dt="string">E-Prime Primary Realtime Clock</Description><StartTime><Timestamp dt:dt="int">0</Timestamp><DateUtc dt:dt="string">2015-02-11T14:51:56Z</DateUtc></StartTime><FrequencyChanges><FrequencyChange><Frequency dt:dt="r8">2327510000</Frequency><Timestamp dt:dt="r8">909333814760</Timestamp><Current dt:dt="r8">0</Current><DateUtc dt:dt="string">2015-02-11T14:51:56Z</DateUtc></FrequencyChange></FrequencyChanges></Clock>\n,v4_BCL_bal_d-14-1,60.001,1.0.0.227,1,-743314279,2.0.10.242,2.0.10.242,02-11-2015,2/11/2015 2:51:56 PM,09:51:56,2.0.10.147,49,,,35,1,31,,,,,,,1,,,g,,0.253,,,9.69,,,30.27,,,,,,ExposureProc,,,,vowel 1,vowel 2,,,,Block1,g1_f0_9_69_f2_30_27_dur_0_253_num_265.wav,,,,
v4_BCL_bal_d,14,1,<?xml version="1.0"?>\n<Clock xmlns:dt="urn:schemas-microsoft-com:datatypes"><Description dt:dt="string">E-Prime Primary Realtime Clock</Description><StartTime><Timestamp dt:dt="int">0</Timestamp><DateUtc dt:dt="string">2015-02-11T14:51:56Z</DateUtc></StartTime><FrequencyChanges><FrequencyChange><Frequency dt:dt="r8">2327510000</Frequency><Timestamp dt:dt="r8">909333814760</Timestamp><Current dt:dt="r8">0</Current><DateUtc dt:dt="string">2015-02-11T14:51:56Z</DateUtc></FrequencyChange></FrequencyChanges></Clock>\n,v4_BCL_bal_d-14-1,60.001,1.0.0.227,1,-743314279,2.0.10.242,2.0.10.242,02-11-2015,2/11/2015 2:51:56 PM,09:51:56,2.0.10.147,50,,,26,1,32,,,,,,,1,,,g,,0.25,,,9.2,,,30.98,,,,,,ExposureProc,,,,vowel 1,vowel 2,,,,Block1,g1_f0_9_20_f2_30_98_dur_0_250_num_224.wav,,,,
v4_BCL_bal_d,14,1,<?xml version="1.0"?>\n<Clock xmlns:dt="urn:schemas-microsoft-com:datatypes"><Description dt:dt="string">E-Prime Primary Realtime Clock</Description><StartTime><Timestamp dt:dt="int">0</Timestamp><DateUtc dt:dt="string">2015-02-11T14:51:56Z</DateUtc></StartTime><FrequencyChanges><FrequencyChange><Frequency dt:dt="r8">2327510000</Frequency><Timestamp dt:dt="r8">909333814760</Timestamp><Current dt:dt="r8">0</Current><DateUtc dt:dt="string">2015-02-11T14:51:56Z</DateUtc></FrequencyChange></FrequencyChanges></Clock>\n,v4_BCL_bal_d-14-1,60.001,1.0.0.227,1,-743314279,2.0.10.242,2.0.10.242,02-11-2015,2/11/2015 2:51:56 PM,09:51:56,2.0.10.147,51,,,5,1,33,,,,,,,1,,,b,,0.251,,,10.34,,,29.71,,,,,,ExposureProc,,,,vowel 1,vowel 2,,,,Block1,b1_f0_10_34_f2_29_71_dur_0_251_num_49.wav,,,,
v4_BCL_bal_d,14,1,<?xml version="1.0"?>\n<Clock xmlns:dt="urn:schemas-microsoft-com:datatypes"><Description dt:dt="string">E-Prime Primary Realtime Clock</Description><StartTime><Timestamp dt:dt="int">0</Timestamp><DateUtc dt:dt="string">2015-02-11T14:51:56Z</DateUtc></StartTime><FrequencyChanges><FrequencyChange><Frequency dt:dt="r8">2327510000</Frequency><Timestamp dt:dt="r8">909333814760</Timestamp><Current dt:dt="r8">0</Current><DateUtc dt:dt="string">2015-02-11T14:51:56Z</DateUtc></FrequencyChange></FrequencyChanges></Clock>\n,v4_BCL_bal_d-14-1,60.001,1.0.0.227,1,-743314279,2.0.10.242,2.0.10.242,02-11-2015,2/11/2015 2:51:56 PM,09:51:56,2.0.10.147,52,,,33,1,34,,,,,,,2,,,g,,0.25,,,8.05,,,30.24,,,,,,ExposureProc,,,,vowel 1,vowel 2,,,,Block1,g2_f0_8_05_f2_30_24_dur_0_250_num_516.wav,,,,
v4_BCL_bal_d,14,1,<?xml version="1.0"?>\n<Clock xmlns:dt="urn:schemas-microsoft-com:datatypes"><Description dt:dt="string">E-Prime Primary Realtime Clock</Description><StartTime><Timestamp dt:dt="int">0</Timestamp><DateUtc dt:dt="string">2015-02-11T14:51:56Z</DateUtc></StartTime><FrequencyChanges><FrequencyChange><Frequency dt:dt="r8">2327510000</Frequency><Timestamp dt:dt="r8">909333814760</Timestamp><Current dt:dt="r8">0</Current><DateUtc dt:dt="string">2015-02-11T14:51:56Z</DateUtc></FrequencyChange></FrequencyChanges></Clock>\n,v4_BCL_bal_d-14-1,60.001,1.0.0.227,1,-743314279,2.0.10.242,2.0.10.242,02-11-2015,2/11/2015 2:51:56 PM,09:51:56,2.0.10.147,53,,,3,1,35,,,,,,,1,,,b,,0.248,,,9.76,,,30.96,,,,,,ExposureProc,,,,vowel 1,vowel 2,,,,Block1,b1_f0_9_76_f2_30_96_dur_0_248_num_98.wav,,,,
v4_BCL_bal_d,14,1,<?xml version="1.0"?>\n<Clock xmlns:dt="urn:schemas-microsoft-com:datatypes"><Description dt:dt="string">E-Prime Primary Realtime Clock</Description><StartTime><Timestamp dt:dt="int">0</Timestamp><DateUtc dt:dt="string">2015-02-11T14:51:56Z</DateUtc></StartTime><FrequencyChanges><FrequencyChange><Frequency dt:dt="r8">2327510000</Frequency><Timestamp dt:dt="r8">909333814760</Timestamp><Current dt:dt="r8">0</Current><DateUtc dt:dt="string">2015-02-11T14:51:56Z</DateUtc></FrequencyChange></FrequencyChanges></Clock>\n,v4_BCL_bal_d-14-1,60.001,1.0.0.227,1,-743314279,2.0.10.242,2.0.10.242,02-11-2015,2/11/2015 2:51:56 PM,09:51:56,2.0.10.147,54,,,21,1,36,,,,,,,1,,,d,,0.248,,,9.06,,,31.49,,,,,,ExposureProc,,,,vowel 1,vowel 2,,,,Block1,d1_f0_9_06_f2_31_49_dur_0_248_num_155.wav,,,,
v4_BCL_bal_d,14,1,<?xml version="1.0"?>\n<Clock xmlns:dt="urn:schemas-microsoft-com:datatypes"><Description dt:dt="string">E-Prime Primary Realtime Clock</Description><StartTime><Timestamp dt:dt="int">0</Timestamp><DateUtc dt:dt="string">2015-02-11T14:51:56Z</DateUtc></StartTime><FrequencyChanges><FrequencyChange><Frequency dt:dt="r8">2327510000</Frequency><Timestamp dt:dt="r8">909333814760</Timestamp><Current dt:dt="r8">0</Current><DateUtc dt:dt="string">2015-02-11T14:51:56Z</DateUtc></FrequencyChange></FrequencyChanges></Clock>\n,v4_BCL_bal_d-14-1,60.001,1.0.0.227,1,-743314279,2.0.10.242,2.0.10.242,02-11-2015,2/11/2015 2:51:56 PM,09:51:56,2.0.10.147,55,,,,,,1,1,1,,,,1,,,d,,0.247,,,8.91,,,31.71,,,,,,TrialProc1,,,,vowel 1,vowel 2,1,849,386426,Block2,d1_f0_8_91_f2_31_71_dur_0_247_num_118.wav,,,,
v4_BCL_bal_d,14,1,<?xml version="1.0"?>\n<Clock xmlns:dt="urn:schemas-microsoft-com:datatypes"><Description dt:dt="string">E-Prime Primary Realtime Clock</Description><StartTime><Timestamp dt:dt="int">0</Timestamp><DateUtc dt:dt="string">2015-02-11T14:51:56Z</DateUtc></StartTime><FrequencyChanges><FrequencyChange><Frequency dt:dt="r8">2327510000</Frequency><Timestamp dt:dt="r8">909333814760</Timestamp><Current dt:dt="r8">0</Current><DateUtc dt:dt="string">2015-02-11T14:51:56Z</DateUtc></FrequencyChange></FrequencyChanges></Clock>\n,v4_BCL_bal_d-14-1,60.001,1.0.0.227,1,-743314279,2.0.10.242,2.0.10.242,02-11-2015,2/11/2015 2:51:56 PM,09:51:56,2.0.10.147,56,,,,,,2,1,2,,,,2,,,d,,0.25,,,9.39,,,29.04,,,,,,TrialProc1,,,,vowel 1,vowel 2,1,676,387920,Block2,d2_f0_9_39_f2_29_04_dur_0_250_num_440.wav,,,,
v4_BCL_bal_d,14,1,<?xml version="1.0"?>\n<Clock xmlns:dt="urn:schemas-microsoft-com:datatypes"><Description dt:dt="string">E-Prime Primary Realtime Clock</Description><StartTime><Timestamp dt:dt="int">0</Timestamp><DateUtc dt:dt="string">2015-02-11T14:51:56Z</DateUtc></StartTime><FrequencyChanges><FrequencyChange><Frequency dt:dt="r8">2327510000</Frequency><Timestamp dt:dt="r8">909333814760</Timestamp><Current dt:dt="r8">0</Current><DateUtc dt:dt="string">2015-02-11T14:51:56Z</DateUtc></FrequencyChange></FrequencyChanges></Clock>\n,v4_BCL_bal_d-14-1,60.001,1.0.0.227,1,-743314279,2.0.10.242,2.0.10.242,02-11-2015,2/11/2015 2:51:56 PM,09:51:56,2.0.10.147,57,,,,,,3,1,3,,,,2,,,d,,0.245,,,9.11,,,28.87,,,,,,TrialProc1,,,,vowel 1,vowel 2,2,617,389361,Block2,d2_f0_9_11_f2_28_87_dur_0_245_num_470.wav,,,,
v4_BCL_bal_d,14,1,<?xml version="1.0"?>\n<Clock xmlns:dt="urn:schemas-microsoft-com:datatypes"><Description dt:dt="string">E-Prime Primary Realtime Clock</Description><StartTime><Timestamp dt:dt="int">0</Timestamp><DateUtc dt:dt="string">2015-02-11T14:51:56Z</DateUtc></StartTime><FrequencyChanges><FrequencyChange><Frequency dt:dt="r8">2327510000</Frequency><Timestamp dt:dt="r8">909333814760</Timestamp><Current dt:dt="r8">0</Current><DateUtc dt:dt="string">2015-02-11T14:51:56Z</DateUtc></FrequencyChange></FrequencyChanges></Clock>\n,v4_BCL_bal_d-14-1,60.001,1.0.0.227,1,-743314279,2.0.10.242,2.0.10.242,02-11-2015,2/11/2015 2:51:56 PM,09:51:56,2.0.10.147,58,,,,,,4,1,4,,,,1,,,d,,0.254,,,8.92,,,30.98,,,,,,TrialProc1,,,,vowel 1,vowel 2,1,468,390645,Block2,d1_f0_8_92_f2_30_98_dur_0_254_num_173.wav,,,,
v4_BCL_bal_d,14,1,<?xml version="1.0"?>\n<Clock xmlns:dt="urn:schemas-microsoft-com:datatypes"><Description dt:dt="string">E-Prime Primary Realtime Clock</Description><StartTime><Timestamp dt:dt="int">0</Timestamp><DateUtc dt:dt="string">2015-02-11T14:51:56Z</DateUtc></StartTime><FrequencyChanges><FrequencyChange><Frequency dt:dt="r8">2327510000</Frequency><Timestamp dt:dt="r8">909333814760</Timestamp><Current dt:dt="r8">0</Current><DateUtc dt:dt="string">2015-02-11T14:51:56Z</DateUtc></FrequencyChange></FrequencyChanges></Clock>\n,v4_BCL_bal_d-14-1,60.001,1.0.0.227,1,-743314279,2.0.10.242,2.0.10.242,02-11-2015,2/11/2015 2:51:56 PM,09:51:56,2.0.10.147,59,,,,,,5,1,5,,,,1,,,d,,0.244,,,10.03,,,29.7,,,,,,TrialProc1,,,,vowel 1,vowel 2,1,409,391887,Block2,d1_f0_10_03_f2_29_70_dur_0_244_num_159.wav,,,,
v4_BCL_bal_d,14,1,<?xml version="1.0"?>\n<Clock xmlns:dt="urn:schemas-microsoft-com:datatypes"><Description dt:dt="string">E-Prime Primary Realtime Clock</Description><StartTime><Timestamp dt:dt="int">0</Timestamp><DateUtc dt:dt="string">2015-02-11T14:51:56Z</DateUtc></StartTime><FrequencyChanges><FrequencyChange><Frequency dt:dt="r8">2327510000</Frequency><Timestamp dt:dt="r8">909333814760</Timestamp><Current dt:dt="r8">0</Current><DateUtc dt:dt="string">2015-02-11T14:51:56Z</DateUtc></FrequencyChange></FrequencyChanges></Clock>\n,v4_BCL_bal_d-14-1,60.001,1.0.0.227,1,-743314279,2.0.10.242,2.0.10.242,02-11-2015,2/11/2015 2:51:56 PM,09:51:56,2.0.10.147,60,,,,,,6,1,6,,,,2,,,d,,0.252,,,7.92,,,30.47,,,,,,TrialProc1,,,,vowel 1,vowel 2,1,660,393370,Block2,d2_f0_7_92_f2_30_47_dur_0_252_num_492.wav,,,,
v4_BCL_bal_d,14,1,<?xml version="1.0"?>\n<Clock xmlns:dt="urn:schemas-microsoft-com:datatypes"><Description dt:dt="string">E-Prime Primary Realtime Clock</Description><StartTime><Timestamp dt:dt="int">0</Timestamp><DateUtc dt:dt="string">2015-02-11T14:51:56Z</DateUtc></StartTime><FrequencyChanges><FrequencyChange><Frequency dt:dt="r8">2327510000</Frequency><Timestamp dt:dt="r8">909333814760</Timestamp><Current dt:dt="r8">0</Current><DateUtc dt:dt="string">2015-02-11T14:51:56Z</DateUtc></FrequencyChange></FrequencyChanges></Clock>\n,v4_BCL_bal_d-14-1,60.001,1.0.0.227,1,-743314279,2.0.10.242,2.0.10.242,02-11-2015,2/11/2015 2:51:56 PM,09:51:56,2.0.10.147,61,,,,,,7,1,7,,,,2,,,d,,0.251,,,9.28,,,29.11,,,,,,TrialProc1,,,,vowel 1,vowel 2,1,466,394643,Block2,d2_f0_9_28_f2_29_11_dur_0_251_num_461.wav,,,,
v4_BCL_bal_d,14,1,<?xml version="1.0"?>\n<Clock xmlns:dt="urn:schemas-microsoft-com:datatypes"><Description dt:dt="string">E-Prime Primary Realtime Clock</Description><StartTime><Timestamp dt:dt="int">0</Timestamp><DateUtc dt:dt="string">2015-02-11T14:51:56Z</DateUtc></StartTime><FrequencyChanges><FrequencyChange><Frequency dt:dt="r8">2327510000</Frequency><Timestamp dt:dt="r8">909333814760</Timestamp><Current dt:dt="r8">0</Current><DateUtc dt:dt="string">2015-02-11T14:51:56Z</DateUtc></FrequencyChange></FrequencyChanges></Clock>\n,v4_BCL_bal_d-14-1,60.001,1.0.0.227,1,-743314279,2.0.10.242,2.0.10.242,02-11-2015,2/11/2015 2:51:56 PM,09:51:56,2.0.10.147,62,,,,,,8,1,8,,,,2,,,d,,0.251,,,8.81,,,30.22,,,,,,TrialProc1,,,,vowel 1,vowel 2,2,402,395862,Block2,d2_f0_8_81_f2_30_22_dur_0_251_num_481.wav,,,,
v4_BCL_bal_d,14,1,<?xml version="1.0"?>\n<Clock xmlns:dt="urn:schemas-microsoft-com:datatypes"><Description dt:dt="string">E-Prime Primary Realtime Clock</Description><StartTime><Timestamp dt:dt="int">0</Timestamp><DateUtc dt:dt="string">2015-02-11T14:51:56Z</DateUtc></StartTime><FrequencyChanges><FrequencyChange><Frequency dt:dt="r8">2327510000</Frequency><Timestamp dt:dt="r8">909333814760</Timestamp><Current dt:dt="r8">0</Current><DateUtc dt:dt="string">2015-02-11T14:51:56Z</DateUtc></FrequencyChange></FrequencyChanges></Clock>\n,v4_BCL_bal_d-14-1,60.001,1.0.0.227,1,-743314279,2.0.10.242,2.0.10.242,02-11-2015,2/11/2015 2:51:56 PM,09:51:56,2.0.10.147,63,,,,,,9,1,9,,,,2,,,d,,0.255,,,8.86,,,29.48,,,,,,TrialProc1,,,,vowel 1,vowel 2,2,833,397510,Block2,d2_f0_8_86_f2_29_48_dur_0_255_num_439.wav,,,,
v4_BCL_bal_d,14,1,<?xml version="1.0"?>\n<Clock xmlns:dt="urn:schemas-microsoft-com:datatypes"><Description dt:dt="string">E-Prime Primary Realtime Clock</Description><StartTime><Timestamp dt:dt="int">0</Timestamp><DateUtc dt:dt="string">2015-02-11T14:51:56Z</DateUtc></StartTime><FrequencyChanges><FrequencyChange><Frequency dt:dt="r8">2327510000</Frequency><Timestamp dt:dt="r8">909333814760</Timestamp><Current dt:dt="r8">0</Current><DateUtc dt:dt="string">2015-02-11T14:51:56Z</DateUtc></FrequencyChange></FrequencyChanges></Clock>\n,v4_BCL_bal_d-14-1,60.001,1.0.0.227,1,-743314279,2.0.10.242,2.0.10.242,02-11-2015,2/11/2015 2:51:56 PM,09:51:56,2.0.10.147,64,,,,,,10,1,10,,,,2,,,d,,0.25,,,8.61,,,29.88,,,,,,TrialProc1,,,,vowel 1,vowel 2,1,638,398965,Block2,d2_f0_8_61_f2_29_88_dur_0_250_num_405.wav,,,,
v4_BCL_bal_d,14,1,<?xml version="1.0"?>\n<Clock xmlns:dt="urn:schemas-microsoft-com:datatypes"><Description dt:dt="string">E-Prime Primary Realtime Clock</Description><StartTime><Timestamp dt:dt="int">0</Timestamp><DateUtc dt:dt="string">2015-02-11T14:51:56Z</DateUtc></StartTime><FrequencyChanges><FrequencyChange><Frequency dt:dt="r8">2327510000</Frequency><Timestamp dt:dt="r8">909333814760</Timestamp><Current dt:dt="r8">0</Current><DateUtc dt:dt="string">2015-02-11T14:51:56Z</DateUtc></FrequencyChange></FrequencyChanges></Clock>\n,v4_BCL_bal_d-14-1,60.001,1.0.0.227,1,-743314279,2.0.10.242,2.0.10.242,02-11-2015,2/11/2015 2:51:56 PM,09:51:56,2.0.10.147,65,,,,,,11,1,11,,,,1,,,d,,0.247,,,9.84,,,30.18,,,,,,TrialProc1,,,,vowel 1,vowel 2,1,1047,400824,Block2,d1_f0_9_84_f2_30_18_dur_0_247_num_171.wav,,,,
v4_BCL_bal_d,14,1,<?xml version="1.0"?>\n<Clock xmlns:dt="urn:schemas-microsoft-com:datatypes"><Description dt:dt="string">E-Prime Primary Realtime Clock</Description><StartTime><Timestamp dt:dt="int">0</Timestamp><DateUtc dt:dt="string">2015-02-11T14:51:56Z</DateUtc></StartTime><FrequencyChanges><FrequencyChange><Frequency dt:dt="r8">2327510000</Frequency><Timestamp dt:dt="r8">909333814760</Timestamp><Current dt:dt="r8">0</Current><DateUtc dt:dt="string">2015-02-11T14:51:56Z</DateUtc></FrequencyChange></FrequencyChanges></Clock>\n,v4_BCL_bal_d-14-1,60.001,1.0.0.227,1,-743314279,2.0.10.242,2.0.10.242,02-11-2015,2/11/2015 2:51:56 PM,09:51:56,2.0.10.147,66,,,,,,12,1,12,,,,2,,,d,,0.244,,,9.09,,,28.27,,,,,,TrialProc1,,,,vowel 1,vowel 2,2,448,402092,Block2,d2_f0_9_09_f2_28_27_dur_0_244_num_479.wav,,,,
v4_BCL_bal_d,14,1,<?xml version="1.0"?>\n<Clock xmlns:dt="urn:schemas-microsoft-com:datatypes"><Description dt:dt="string">E-Prime Primary Realtime Clock</Description><StartTime><Timestamp dt:dt="int">0</Timestamp><DateUtc dt:dt="string">2015-02-11T14:51:56Z</DateUtc></StartTime><FrequencyChanges><FrequencyChange><Frequency dt:dt="r8">2327510000</Frequency><Timestamp dt:dt="r8">909333814760</Timestamp><Current dt:dt="r8">0</Current><DateUtc dt:dt="string">2015-02-11T14:51:56Z</DateUtc></FrequencyChange></FrequencyChanges></Clock>\n,v4_BCL_bal_d-14-1,60.001,1.0.0.227,1,-743314279,2.0.10.242,2.0.10.242,02-11-2015,2/11/2015 2:51:56 PM,09:51:56,2.0.10.147,67,,,,,,13,1,13,,,,2,,,d,,0.253,,,8.2,,,30.77,,,,,,TrialProc1,,,,vowel 1,vowel 2,2,617,403511,Block2,d2_f0_8_20_f2_30_77_dur_0_253_num_454.wav,,,,
v4_BCL_bal_d,14,1,<?xml version="1.0"?>\n<Clock xmlns:dt="urn:schemas-microsoft-com:datatypes"><Description dt:dt="string">E-Prime Primary Realtime Clock</Description><StartTime><Timestamp dt:dt="int">0</Timestamp><DateUtc dt:dt="string">2015-02-11T14:51:56Z</DateUtc></StartTime><FrequencyChanges><FrequencyChange><Frequency dt:dt="r8">2327510000</Frequency><Timestamp dt:dt="r8">909333814760</Timestamp><Current dt:dt="r8">0</Current><DateUtc dt:dt="string">2015-02-11T14:51:56Z</DateUtc></FrequencyChange></FrequencyChanges></Clock>\n,v4_BCL_bal_d-14-1,60.001,1.0.0.227,1,-743314279,2.0.10.242,2.0.10.242,02-11-2015,2/11/2015 2:51:56 PM,09:51:56,2.0.10.147,68,,,,,,14,1,14,,,,1,,,d,,0.248,,,8.96,,,31.34,,,,,,TrialProc1,,,,vowel 1,vowel 2,1,393,404720,Block2,d1_f0_8_96_f2_31_34_dur_0_248_num_139.wav,,,,
v4_BCL_bal_d,14,1,<?xml version="1.0"?>\n<Clock xmlns:dt="urn:schemas-microsoft-com:datatypes"><Description dt:dt="string">E-Prime Primary Realtime Clock</Description><StartTime><Timestamp dt:dt="int">0</Timestamp><DateUtc dt:dt="string">2015-02-11T14:51:56Z</DateUtc></StartTime><FrequencyChanges><FrequencyChange><Frequency dt:dt="r8">2327510000</Frequency><Timestamp dt:dt="r8">909333814760</Timestamp><Current dt:dt="r8">0</Current><DateUtc dt:dt="string">2015-02-11T14:51:56Z</DateUtc></FrequencyChange></FrequencyChanges></Clock>\n,v4_BCL_bal_d-14-1,60.001,1.0.0.227,1,-743314279,2.0.10.242,2.0.10.242,02-11-2015,2/11/2015 2:51:56 PM,09:51:56,2.0.10.147,69,,,,,,15,1,15,,,,1,,,d,,0.25,,,10.05,,,30.48,,,,,,TrialProc1,,,,vowel 1,vowel 2,1,669,406196,Block2,d1_f0_10_05_f2_30_48_dur_0_250_num_179.wav,,,,
v4_BCL_bal_d,14,1,<?xml version="1.0"?>\n<Clock xmlns:dt="urn:schemas-microsoft-com:datatypes"><Description dt:dt="string">E-Prime Primary Realtime Clock</Description><StartTime><Timestamp dt:dt="int">0</Timestamp><DateUtc dt:dt="string">2015-02-11T14:51:56Z</DateUtc></StartTime><FrequencyChanges><FrequencyChange><Frequency dt:dt="r8">2327510000</Frequency><Timestamp dt:dt="r8">909333814760</Timestamp><Current dt:dt="r8">0</Current><DateUtc dt:dt="string">2015-02-11T14:51:56Z</DateUtc></FrequencyChange></FrequencyChanges></Clock>\n,v4_BCL_bal_d-14-1,60.001,1.0.0.227,1,-743314279,2.0.10.242,2.0.10.242,02-11-2015,2/11/2015 2:51:56 PM,09:51:56,2.0.10.147,70,,,,,,16,1,16,,,,1,,,d,,0.25,,,9.5,,,30.64,,,,,,TrialProc1,,,,vowel 1,vowel 2,1,650,407660,Block2,d1_f0_9_50_f2_30_64_dur_0_250_num_152.wav,,,,
v4_BCL_bal_d,14,1,<?xml version="1.0"?>\n<Clock xmlns:dt="urn:schemas-microsoft-com:datatypes"><Description dt:dt="string">E-Prime Primary Realtime Clock</Description><StartTime><Timestamp dt:dt="int">0</Timestamp><DateUtc dt:dt="string">2015-02-11T14:51:56Z</DateUtc></StartTime><FrequencyChanges><FrequencyChange><Frequency dt:dt="r8">2327510000</Frequency><Timestamp dt:dt="r8">909333814760</Timestamp><Current dt:dt="r8">0</Current><DateUtc dt:dt="string">2015-02-11T14:51:56Z</DateUtc></FrequencyChange></FrequencyChanges></Clock>\n,v4_BCL_bal_d-14-1,60.001,1.0.0.227,1,-743314279,2.0.10.242,2.0.10.242,02-11-2015,2/11/2015 2:51:56 PM,09:51:56,2.0.10.147,71,,,,,,17,1,17,,,,1,,,d,,0.248,,,9.27,,,31.31,,,,,,TrialProc1,,,,vowel 1,vowel 2,2,522,408999,Block2,d1_f0_9_27_f2_31_31_dur_0_248_num_127.wav,,,,
v4_BCL_bal_d,14,1,<?xml version="1.0"?>\n<Clock xmlns:dt="urn:schemas-microsoft-com:datatypes"><Description dt:dt="string">E-Prime Primary Realtime Clock</Description><StartTime><Timestamp dt:dt="int">0</Timestamp><DateUtc dt:dt="string">2015-02-11T14:51:56Z</DateUtc></StartTime><FrequencyChanges><FrequencyChange><Frequency dt:dt="r8">2327510000</Frequency><Timestamp dt:dt="r8">909333814760</Timestamp><Current dt:dt="r8">0</Current><DateUtc dt:dt="string">2015-02-11T14:51:56Z</DateUtc></FrequencyChange></FrequencyChanges></Clock>\n,v4_BCL_bal_d-14-1,60.001,1.0.0.227,1,-743314279,2.0.10.242,2.0.10.242,02-11-2015,2/11/2015 2:51:56 PM,09:51:56,2.0.10.147,72,,,,,,18,1,18,,,,1,,,d,,0.247,,,10.14,,,29.72,,,,,,TrialProc1,,,,vowel 1,vowel 2,1,410,410220,Block2,d1_f0_10_14_f2_29_72_dur_0_247_num_172.wav,,,,
v4_BCL_bal_d,14,1,<?xml version="1.0"?>\n<Clock xmlns:dt="urn:schemas-microsoft-com:datatypes"><Description dt:dt="string">E-Prime Primary Realtime Clock</Description><StartTime><Timestamp dt:dt="int">0</Timestamp><DateUtc dt:dt="string">2015-02-11T14:51:56Z</DateUtc></StartTime><FrequencyChanges><FrequencyChange><Frequency dt:dt="r8">2327510000</Frequency><Timestamp dt:dt="r8">909333814760</Timestamp><Current dt:dt="r8">0</Current><DateUtc dt:dt="string">2015-02-11T14:51:56Z</DateUtc></FrequencyChange></FrequencyChanges></Clock>\n,v4_BCL_bal_d-14-1,60.001,1.0.0.227,1,-743314279,2.0.10.242,2.0.10.242,02-11-2015,2/11/2015 2:51:56 PM,09:51:56,2.0.10.147,73,,,,,,19,1,19,,,,2,,,d,,0.25,,,8.32,,,29.65,,,,,,TrialProc1,,,,vowel 1,vowel 2,2,408,411435,Block2,d2_f0_8_32_f2_29_65_dur_0_250_num_407.wav,,,,
v4_BCL_bal_d,14,1,<?xml version="1.0"?>\n<Clock xmlns:dt="urn:schemas-microsoft-com:datatypes"><Description dt:dt="string">E-Prime Primary Realtime Clock</Description><StartTime><Timestamp dt:dt="int">0</Timestamp><DateUtc dt:dt="string">2015-02-11T14:51:56Z</DateUtc></StartTime><FrequencyChanges><FrequencyChange><Frequency dt:dt="r8">2327510000</Frequency><Timestamp dt:dt="r8">909333814760</Timestamp><Current dt:dt="r8">0</Current><DateUtc dt:dt="string">2015-02-11T14:51:56Z</DateUtc></FrequencyChange></FrequencyChanges></Clock>\n,v4_BCL_bal_d-14-1,60.001,1.0.0.227,1,-743314279,2.0.10.242,2.0.10.242,02-11-2015,2/11/2015 2:51:56 PM,09:51:56,2.0.10.147,74,,,,,,20,1,20,,,,1,,,d,,0.25,,,9.8,,,30.16,,,,,,TrialProc1,,,,vowel 1,vowel 2,1,506,412750,Block2,d1_f0_9_80_f2_30_16_dur_0_250_num_119.wav,,,,
v4_BCL_bal_d,14,1,<?xml version="1.0"?>\n<Clock xmlns:dt="urn:schemas-microsoft-com:datatypes"><Description dt:dt="string">E-Prime Primary Realtime Clock</Description><StartTime><Timestamp dt:dt="int">0</Timestamp><DateUtc dt:dt="string">2015-02-11T14:51:56Z</DateUtc></StartTime><FrequencyChanges><FrequencyChange><Frequency dt:dt="r8">2327510000</Frequency><Timestamp dt:dt="r8">909333814760</Timestamp><Current dt:dt="r8">0</Current><DateUtc dt:dt="string">2015-02-11T14:51:56Z</DateUtc></FrequencyChange></FrequencyChanges></Clock>\n,v4_BCL_bal_d-14-1,60.001,1.0.0.227,1,-743314279,2.0.10.242,2.0.10.242,02-11-2015,2/11/2015 2:51:56 PM,09:51:56,2.0.10.147,75,,,,,,21,1,21,,,,1,,,d,,0.25,,,9.27,,,30.77,,,,,,TrialProc1,,,,vowel 1,vowel 2,1,476,414036,Block2,d1_f0_9_27_f2_30_77_dur_0_250_num_183.wav,,,,
v4_BCL_bal_d,14,1,<?xml version="1.0"?>\n<Clock xmlns:dt="urn:schemas-microsoft-com:datatypes"><Description dt:dt="string">E-Prime Primary Realtime Clock</Description><StartTime><Timestamp dt:dt="int">0</Timestamp><DateUtc dt:dt="string">2015-02-11T14:51:56Z</DateUtc></StartTime><FrequencyChanges><FrequencyChange><Frequency dt:dt="r8">2327510000</Frequency><Timestamp dt:dt="r8">909333814760</Timestamp><Current dt:dt="r8">0</Current><DateUtc dt:dt="string">2015-02-11T14:51:56Z</DateUtc></FrequencyChange></FrequencyChanges></Clock>\n,v4_BCL_bal_d-14-1,60.001,1.0.0.227,1,-743314279,2.0.10.242,2.0.10.242,02-11-2015,2/11/2015 2:51:56 PM,09:51:56,2.0.10.147,76,,,,,,22,1,22,,,,1,,,d,,0.247,,,9.92,,,30.42,,,,,,TrialProc1,,,,vowel 1,vowel 2,1,619,415463,Block2,d1_f0_9_92_f2_30_42_dur_0_247_num_141.wav,,,,
v4_BCL_bal_d,14,1,<?xml version="1.0"?>\n<Clock xmlns:dt="urn:schemas-microsoft-com:datatypes"><Description dt:dt="string">E-Prime Primary Realtime Clock</Description><StartTime><Timestamp dt:dt="int">0</Timestamp><DateUtc dt:dt="string">2015-02-11T14:51:56Z</DateUtc></StartTime><FrequencyChanges><FrequencyChange><Frequency dt:dt="r8">2327510000</Frequency><Timestamp dt:dt="r8">909333814760</Timestamp><Current dt:dt="r8">0</Current><DateUtc dt:dt="string">2015-02-11T14:51:56Z</DateUtc></FrequencyChange></FrequencyChanges></Clock>\n,v4_BCL_bal_d-14-1,60.001,1.0.0.227,1,-743314279,2.0.10.242,2.0.10.242,02-11-2015,2/11/2015 2:51:56 PM,09:51:56,2.0.10.147,77,,,,,,23,1,23,,,,2,,,d,,0.25,,,8.44,,,29.73,,,,,,TrialProc1,,,,vowel 1,vowel 2,1,753,417030,Block2,d2_f0_8_44_f2_29_73_dur_0_250_num_457.wav,,,,
v4_BCL_bal_d,14,1,<?xml version="1.0"?>\n<Clock xmlns:dt="urn:schemas-microsoft-com:datatypes"><Description dt:dt="string">E-Prime Primary Realtime Clock</Description><StartTime><Timestamp dt:dt="int">0</Timestamp><DateUtc dt:dt="string">2015-02-11T14:51:56Z</DateUtc></StartTime><FrequencyChanges><FrequencyChange><Frequency dt:dt="r8">2327510000</Frequency><Timestamp dt:dt="r8">909333814760</Timestamp><Current dt:dt="r8">0</Current><DateUtc dt:dt="string">2015-02-11T14:51:56Z</DateUtc></FrequencyChange></FrequencyChanges></Clock>\n,v4_BCL_bal_d-14-1,60.001,1.0.0.227,1,-743314279,2.0.10.242,2.0.10.242,02-11-2015,2/11/2015 2:51:56 PM,09:51:56,2.0.10.147,78,,,,,,24,1,24,,,,2,,,d,,0.248,,,8.68,,,29.84,,,,,,TrialProc1,,,,vowel 1,vowel 2,2,598,418442,Block2,d2_f0_8_68_f2_29_84_dur_0_248_num_477.wav,,,,
v4_BCL_bal_d,14,1,<?xml version="1.0"?>\n<Clock xmlns:dt="urn:schemas-microsoft-com:datatypes"><Description dt:dt="string">E-Prime Primary Realtime Clock</Description><StartTime><Timestamp dt:dt="int">0</Timestamp><DateUtc dt:dt="string">2015-02-11T14:51:56Z</DateUtc></StartTime><FrequencyChanges><FrequencyChange><Frequency dt:dt="r8">2327510000</Frequency><Timestamp dt:dt="r8">909333814760</Timestamp><Current dt:dt="r8">0</Current><DateUtc dt:dt="string">2015-02-11T14:51:56Z</DateUtc></FrequencyChange></FrequencyChanges></Clock>\n,v4_BCL_bal_d-14-1,60.001,1.0.0.227,1,-743314279,2.0.10.242,2.0.10.242,02-11-2015,2/11/2015 2:51:56 PM,09:51:56,2.0.10.147,79,,,,,,25,1,25,,,,2,,,d,,0.256,,,8.46,,,29.27,,,,,,TrialProc1,,,,vowel 1,vowel 2,2,1100,420344,Block2,d2_f0_8_46_f2_29_27_dur_0_256_num_491.wav,,,,
v4_BCL_bal_d,14,1,<?xml version="1.0"?>\n<Clock xmlns:dt="urn:schemas-microsoft-com:datatypes"><Description dt:dt="string">E-Prime Primary Realtime Clock</Description><StartTime><Timestamp dt:dt="int">0</Timestamp><DateUtc dt:dt="string">2015-02-11T14:51:56Z</DateUtc></StartTime><FrequencyChanges><FrequencyChange><Frequency dt:dt="r8">2327510000</Frequency><Timestamp dt:dt="r8">909333814760</Timestamp><Current dt:dt="r8">0</Current><DateUtc dt:dt="string">2015-02-11T14:51:56Z</DateUtc></FrequencyChange></FrequencyChanges></Clock>\n,v4_BCL_bal_d-14-1,60.001,1.0.0.227,1,-743314279,2.0.10.242,2.0.10.242,02-11-2015,2/11/2015 2:51:56 PM,09:51:56,2.0.10.147,80,,,,,,26,1,26,,,,2,,,d,,0.25,,,7.7,,,31.8,,,,,,TrialProc1,,,,vowel 1,vowel 2,1,465,421625,Block2,d2_f0_7_70_f2_31_80_dur_0_250_num_443.wav,,,,
v4_BCL_bal_d,14,1,<?xml version="1.0"?>\n<Clock xmlns:dt="urn:schemas-microsoft-com:datatypes"><Description dt:dt="string">E-Prime Primary Realtime Clock</Description><StartTime><Timestamp dt:dt="int">0</Timestamp><DateUtc dt:dt="string">2015-02-11T14:51:56Z</DateUtc></StartTime><FrequencyChanges><FrequencyChange><Frequency dt:dt="r8">2327510000</Frequency><Timestamp dt:dt="r8">909333814760</Timestamp><Current dt:dt="r8">0</Current><DateUtc dt:dt="string">2015-02-11T14:51:56Z</DateUtc></FrequencyChange></FrequencyChanges></Clock>\n,v4_BCL_bal_d-14-1,60.001,1.0.0.227,1,-743314279,2.0.10.242,2.0.10.242,02-11-2015,2/11/2015 2:51:56 PM,09:51:56,2.0.10.147,81,,,,,,27,1,27,,,,2,,,d,,0.246,,,9.77,,,28.64,,,,,,TrialProc1,,,,vowel 1,vowel 2,1,431,422858,Block2,d2_f0_9_77_f2_28_64_dur_0_246_num_450.wav,,,,
v4_BCL_bal_d,14,1,<?xml version="1.0"?>\n<Clock xmlns:dt="urn:schemas-microsoft-com:datatypes"><Description dt:dt="string">E-Prime Primary Realtime Clock</Description><StartTime><Timestamp dt:dt="int">0</Timestamp><DateUtc dt:dt="string">2015-02-11T14:51:56Z</DateUtc></StartTime><FrequencyChanges><FrequencyChange><Frequency dt:dt="r8">2327510000</Frequency><Timestamp dt:dt="r8">909333814760</Timestamp><Current dt:dt="r8">0</Current><DateUtc dt:dt="string">2015-02-11T14:51:56Z</DateUtc></FrequencyChange></FrequencyChanges></Clock>\n,v4_BCL_bal_d-14-1,60.001,1.0.0.227,1,-743314279,2.0.10.242,2.0.10.242,02-11-2015,2/11/2015 2:51:56 PM,09:51:56,2.0.10.147,82,,,,,,28,1,28,,,,1,,,d,,0.246,,,10.18,,,30.89,,,,,,TrialProc1,,,,vowel 1,vowel 2,2,602,424262,Block2,d1_f0_10_18_f2_30_89_dur_0_246_num_121.wav,,,,
v4_BCL_bal_d,14,1,<?xml version="1.0"?>\n<Clock xmlns:dt="urn:schemas-microsoft-com:datatypes"><Description dt:dt="string">E-Prime Primary Realtime Clock</Description><StartTime><Timestamp dt:dt="int">0</Timestamp><DateUtc dt:dt="string">2015-02-11T14:51:56Z</DateUtc></StartTime><FrequencyChanges><FrequencyChange><Frequency dt:dt="r8">2327510000</Frequency><Timestamp dt:dt="r8">909333814760</Timestamp><Current dt:dt="r8">0</Current><DateUtc dt:dt="string">2015-02-11T14:51:56Z</DateUtc></FrequencyChange></FrequencyChanges></Clock>\n,v4_BCL_bal_d-14-1,60.001,1.0.0.227,1,-743314279,2.0.10.242,2.0.10.242,02-11-2015,2/11/2015 2:51:56 PM,09:51:56,2.0.10.147,83,,,,,,29,1,29,,,,1,,,d,,0.248,,,9.65,,,31.79,,,,,,TrialProc1,,,,vowel 1,vowel 2,1,438,425515,Block2,d1_f0_9_65_f2_31_79_dur_0_248_num_131.wav,,,,
v4_BCL_bal_d,14,1,<?xml version="1.0"?>\n<Clock xmlns:dt="urn:schemas-microsoft-com:datatypes"><Description dt:dt="string">E-Prime Primary Realtime Clock</Description><StartTime><Timestamp dt:dt="int">0</Timestamp><DateUtc dt:dt="string">2015-02-11T14:51:56Z</DateUtc></StartTime><FrequencyChanges><FrequencyChange><Frequency dt:dt="r8">2327510000</Frequency><Timestamp dt:dt="r8">909333814760</Timestamp><Current dt:dt="r8">0</Current><DateUtc dt:dt="string">2015-02-11T14:51:56Z</DateUtc></FrequencyChange></FrequencyChanges></Clock>\n,v4_BCL_bal_d-14-1,60.001,1.0.0.227,1,-743314279,2.0.10.242,2.0.10.242,02-11-2015,2/11/2015 2:51:56 PM,09:51:56,2.0.10.147,84,,,,,,30,1,30,,,,1,,,d,,0.252,,,8.6,,,31.83,,,,,,TrialProc1,,,,vowel 1,vowel 2,1,439,426766,Block2,d1_f0_8_60_f2_31_83_dur_0_252_num_102.wav,,,,
v4_BCL_bal_d,14,1,<?xml version="1.0"?>\n<Clock xmlns:dt="urn:schemas-microsoft-com:datatypes"><Description dt:dt="string">E-Prime Primary Realtime Clock</Description><StartTime><Timestamp dt:dt="int">0</Timestamp><DateUtc dt:dt="string">2015-02-11T14:51:56Z</DateUtc></StartTime><FrequencyChanges><FrequencyChange><Frequency dt:dt="r8">2327510000</Frequency><Timestamp dt:dt="r8">909333814760</Timestamp><Current dt:dt="r8">0</Current><DateUtc dt:dt="string">2015-02-11T14:51:56Z</DateUtc></FrequencyChange></FrequencyChanges></Clock>\n,v4_BCL_bal_d-14-1,60.001,1.0.0.227,1,-743314279,2.0.10.242,2.0.10.242,02-11-2015,2/11/2015 2:51:56 PM,09:51:56,2.0.10.147,85,,,,,,31,1,31,,,,2,,,d,,0.253,,,9.11,,,29.33,,,,,,TrialProc1,,,,vowel 1,vowel 2,1,532,428109,Block2,d2_f0_9_11_f2_29_33_dur_0_253_num_453.wav,,,,
v4_BCL_bal_d,14,1,<?xml version="1.0"?>\n<Clock xmlns:dt="urn:schemas-microsoft-com:datatypes"><Description dt:dt="string">E-Prime Primary Realtime Clock</Description><StartTime><Timestamp dt:dt="int">0</Timestamp><DateUtc dt:dt="string">2015-02-11T14:51:56Z</DateUtc></StartTime><FrequencyChanges><FrequencyChange><Frequency dt:dt="r8">2327510000</Frequency><Timestamp dt:dt="r8">909333814760</Timestamp><Current dt:dt="r8">0</Current><DateUtc dt:dt="string">2015-02-11T14:51:56Z</DateUtc></FrequencyChange></FrequencyChanges></Clock>\n,v4_BCL_bal_d-14-1,60.001,1.0.0.227,1,-743314279,2.0.10.242,2.0.10.242,02-11-2015,2/11/2015 2:51:56 PM,09:51:56,2.0.10.147,86,,,,,,32,1,32,,,,2,,,d,,0.251,,,8.2,,,30.35,,,,,,TrialProc1,,,,vowel 1,vowel 2,2,624,429551,Block2,d2_f0_8_20_f2_30_35_dur_0_251_num_427.wav,,,,
v4_BCL_bal_d,14,1,<?xml version="1.0"?>\n<Clock xmlns:dt="urn:schemas-microsoft-com:datatypes"><Description dt:dt="string">E-Prime Primary Realtime Clock</Description><StartTime><Timestamp dt:dt="int">0</Timestamp><DateUtc dt:dt="string">2015-02-11T14:51:56Z</DateUtc></StartTime><FrequencyChanges><FrequencyChange><Frequency dt:dt="r8">2327510000</Frequency><Timestamp dt:dt="r8">909333814760</Timestamp><Current dt:dt="r8">0</Current><DateUtc dt:dt="string">2015-02-11T14:51:56Z</DateUtc></FrequencyChange></FrequencyChanges></Clock>\n,v4_BCL_bal_d-14-1,60.001,1.0.0.227,1,-743314279,2.0.10.242,2.0.10.242,02-11-2015,2/11/2015 2:51:56 PM,09:51:56,2.0.10.147,87,,,,,,33,1,33,,,,1,,,d,,0.249,,,11.15,,,29.26,,,,,,TrialProc1,,,,vowel 1,vowel 2,1,1238,431598,Block2,d1_f0_11_15_f2_29_26_dur_0_249_num_197.wav,,,,
v4_BCL_bal_d,14,1,<?xml version="1.0"?>\n<Clock xmlns:dt="urn:schemas-microsoft-com:datatypes"><Description dt:dt="string">E-Prime Primary Realtime Clock</Description><StartTime><Timestamp dt:dt="int">0</Timestamp><DateUtc dt:dt="string">2015-02-11T14:51:56Z</DateUtc></StartTime><FrequencyChanges><FrequencyChange><Frequency dt:dt="r8">2327510000</Frequency><Timestamp dt:dt="r8">909333814760</Timestamp><Current dt:dt="r8">0</Current><DateUtc dt:dt="string">2015-02-11T14:51:56Z</DateUtc></FrequencyChange></FrequencyChanges></Clock>\n,v4_BCL_bal_d-14-1,60.001,1.0.0.227,1,-743314279,2.0.10.242,2.0.10.242,02-11-2015,2/11/2015 2:51:56 PM,09:51:56,2.0.10.147,88,,,,,,34,1,34,,,,1,,,d,,0.251,,,9.39,,,30.98,,,,,,TrialProc1,,,,vowel 1,vowel 2,1,443,432853,Block2,d1_f0_9_39_f2_30_98_dur_0_251_num_167.wav,,,,
v4_BCL_bal_d,14,1,<?xml version="1.0"?>\n<Clock xmlns:dt="urn:schemas-microsoft-com:datatypes"><Description dt:dt="string">E-Prime Primary Realtime Clock</Description><StartTime><Timestamp dt:dt="int">0</Timestamp><DateUtc dt:dt="string">2015-02-11T14:51:56Z</DateUtc></StartTime><FrequencyChanges><FrequencyChange><Frequency dt:dt="r8">2327510000</Frequency><Timestamp dt:dt="r8">909333814760</Timestamp><Current dt:dt="r8">0</Current><DateUtc dt:dt="string">2015-02-11T14:51:56Z</DateUtc></FrequencyChange></FrequencyChanges></Clock>\n,v4_BCL_bal_d-14-1,60.001,1.0.0.227,1,-743314279,2.0.10.242,2.0.10.242,02-11-2015,2/11/2015 2:51:56 PM,09:51:56,2.0.10.147,89,,,,,,35,1,35,,,,2,,,d,,0.256,,,8.9,,,29.16,,,,,,TrialProc1,,,,vowel 1,vowel 2,1,675,434335,Block2,d2_f0_8_90_f2_29_16_dur_0_256_num_445.wav,,,,
v4_BCL_bal_d,14,1,<?xml version="1.0"?>\n<Clock xmlns:dt="urn:schemas-microsoft-com:datatypes"><Description dt:dt="string">E-Prime Primary Realtime Clock</Description><StartTime><Timestamp dt:dt="int">0</Timestamp><DateUtc dt:dt="string">2015-02-11T14:51:56Z</DateUtc></StartTime><FrequencyChanges><FrequencyChange><Frequency dt:dt="r8">2327510000</Frequency><Timestamp dt:dt="r8">909333814760</Timestamp><Current dt:dt="r8">0</Current><DateUtc dt:dt="string">2015-02-11T14:51:56Z</DateUtc></FrequencyChange></FrequencyChanges></Clock>\n,v4_BCL_bal_d-14-1,60.001,1.0.0.227,1,-743314279,2.0.10.242,2.0.10.242,02-11-2015,2/11/2015 2:51:56 PM,09:51:56,2.0.10.147,90,,,,,,36,1,36,,,,1,,,d,,0.249,,,9.65,,,30.92,,,,,,TrialProc1,,,,vowel 1,vowel 2,1,758,435901,Block2,d1_f0_9_65_f2_30_92_dur_0_249_num_154.wav,,,,
v4_BCL_bal_d,14,1,<?xml version="1.0"?>\n<Clock xmlns:dt="urn:schemas-microsoft-com:datatypes"><Description dt:dt="string">E-Prime Primary Realtime Clock</Description><StartTime><Timestamp dt:dt="int">0</Timestamp><DateUtc dt:dt="string">2015-02-11T14:51:56Z</DateUtc></StartTime><FrequencyChanges><FrequencyChange><Frequency dt:dt="r8">2327510000</Frequency><Timestamp dt:dt="r8">909333814760</Timestamp><Current dt:dt="r8">0</Current><DateUtc dt:dt="string">2015-02-11T14:51:56Z</DateUtc></FrequencyChange></FrequencyChanges></Clock>\n,v4_BCL_bal_d-14-1,60.001,1.0.0.227,1,-743314279,2.0.10.242,2.0.10.242,02-11-2015,2/11/2015 2:51:56 PM,09:51:56,2.0.10.147,91,,,,,,37,1,37,,,,1,,,d,,0.249,,,9.05,,,31.06,,,,,,TrialProc1,,,,vowel 1,vowel 2,1,827,437537,Block2,d1_f0_9_05_f2_31_06_dur_0_249_num_151.wav,,,,
v4_BCL_bal_d,14,1,<?xml version="1.0"?>\n<Clock xmlns:dt="urn:schemas-microsoft-com:datatypes"><Description dt:dt="string">E-Prime Primary Realtime Clock</Description><StartTime><Timestamp dt:dt="int">0</Timestamp><DateUtc dt:dt="string">2015-02-11T14:51:56Z</DateUtc></StartTime><FrequencyChanges><FrequencyChange><Frequency dt:dt="r8">2327510000</Frequency><Timestamp dt:dt="r8">909333814760</Timestamp><Current dt:dt="r8">0</Current><DateUtc dt:dt="string">2015-02-11T14:51:56Z</DateUtc></FrequencyChange></FrequencyChanges></Clock>\n,v4_BCL_bal_d-14-1,60.001,1.0.0.227,1,-743314279,2.0.10.242,2.0.10.242,02-11-2015,2/11/2015 2:51:56 PM,09:51:56,2.0.10.147,92,,,,,,38,1,38,,,,2,,,d,,0.249,,,10.29,,,27.61,,,,,,TrialProc1,,,,vowel 1,vowel 2,2,381,438724,Block2,d2_f0_10_29_f2_27_61_dur_0_249_num_478.wav,,,,
v4_BCL_bal_d,14,1,<?xml version="1.0"?>\n<Clock xmlns:dt="urn:schemas-microsoft-com:datatypes"><Description dt:dt="string">E-Prime Primary Realtime Clock</Description><StartTime><Timestamp dt:dt="int">0</Timestamp><DateUtc dt:dt="string">2015-02-11T14:51:56Z</DateUtc></StartTime><FrequencyChanges><FrequencyChange><Frequency dt:dt="r8">2327510000</Frequency><Timestamp dt:dt="r8">909333814760</Timestamp><Current dt:dt="r8">0</Current><DateUtc dt:dt="string">2015-02-11T14:51:56Z</DateUtc></FrequencyChange></FrequencyChanges></Clock>\n,v4_BCL_bal_d-14-1,60.001,1.0.0.227,1,-743314279,2.0.10.242,2.0.10.242,02-11-2015,2/11/2015 2:51:56 PM,09:51:56,2.0.10.147,93,,,,,,39,1,39,,,,1,,,d,,0.252,,,9.67,,,30.45,,,,,,TrialProc1,,,,vowel 1,vowel 2,2,676,440219,Block2,d1_f0_9_67_f2_30_45_dur_0_252_num_106.wav,,,,
v4_BCL_bal_d,14,1,<?xml version="1.0"?>\n<Clock xmlns:dt="urn:schemas-microsoft-com:datatypes"><Description dt:dt="string">E-Prime Primary Realtime Clock</Description><StartTime><Timestamp dt:dt="int">0</Timestamp><DateUtc dt:dt="string">2015-02-11T14:51:56Z</DateUtc></StartTime><FrequencyChanges><FrequencyChange><Frequency dt:dt="r8">2327510000</Frequency><Timestamp dt:dt="r8">909333814760</Timestamp><Current dt:dt="r8">0</Current><DateUtc dt:dt="string">2015-02-11T14:51:56Z</DateUtc></FrequencyChange></FrequencyChanges></Clock>\n,v4_BCL_bal_d-14-1,60.001,1.0.0.227,1,-743314279,2.0.10.242,2.0.10.242,02-11-2015,2/11/2015 2:51:56 PM,09:51:56,2.0.10.147,94,,,,,,40,1,40,,,,1,,,d,,0.25,,,9.91,,,30.56,,,,,,TrialProc1,,,,vowel 1,vowel 2,1,514,441557,Block2,d1_f0_9_91_f2_30_56_dur_0_250_num_161.wav,,,,
v4_BCL_bal_d,14,1,<?xml version="1.0"?>\n<Clock xmlns:dt="urn:schemas-microsoft-com:datatypes"><Description dt:dt="string">E-Prime Primary Realtime Clock</Description><StartTime><Timestamp dt:dt="int">0</Timestamp><DateUtc dt:dt="string">2015-02-11T14:51:56Z</DateUtc></StartTime><FrequencyChanges><FrequencyChange><Frequency dt:dt="r8">2327510000</Frequency><Timestamp dt:dt="r8">909333814760</Timestamp><Current dt:dt="r8">0</Current><DateUtc dt:dt="string">2015-02-11T14:51:56Z</DateUtc></FrequencyChange></FrequencyChanges></Clock>\n,v4_BCL_bal_d-14-1,60.001,1.0.0.227,1,-743314279,2.0.10.242,2.0.10.242,02-11-2015,2/11/2015 2:51:56 PM,09:51:56,2.0.10.147,95,,,,,,41,1,41,,,,2,,,d,,0.25,,,8.74,,,29.36,,,,,,TrialProc1,,,,vowel 1,vowel 2,2,511,442888,Block2,d2_f0_8_74_f2_29_36_dur_0_250_num_421.wav,,,,
v4_BCL_bal_d,14,1,<?xml version="1.0"?>\n<Clock xmlns:dt="urn:schemas-microsoft-com:datatypes"><Description dt:dt="string">E-Prime Primary Realtime Clock</Description><StartTime><Timestamp dt:dt="int">0</Timestamp><DateUtc dt:dt="string">2015-02-11T14:51:56Z</DateUtc></StartTime><FrequencyChanges><FrequencyChange><Frequency dt:dt="r8">2327510000</Frequency><Timestamp dt:dt="r8">909333814760</Timestamp><Current dt:dt="r8">0</Current><DateUtc dt:dt="string">2015-02-11T14:51:56Z</DateUtc></FrequencyChange></FrequencyChanges></Clock>\n,v4_BCL_bal_d-14-1,60.001,1.0.0.227,1,-743314279,2.0.10.242,2.0.10.242,02-11-2015,2/11/2015 2:51:56 PM,09:51:56,2.0.10.147,96,,,,,,42,1,42,,,,2,,,d,,0.256,,,9.04,,,29.4,,,,,,TrialProc1,,,,vowel 1,vowel 2,2,485,444178,Block2,d2_f0_9_04_f2_29_40_dur_0_256_num_471.wav,,,,
v4_BCL_bal_d,14,1,<?xml version="1.0"?>\n<Clock xmlns:dt="urn:schemas-microsoft-com:datatypes"><Description dt:dt="string">E-Prime Primary Realtime Clock</Description><StartTime><Timestamp dt:dt="int">0</Timestamp><DateUtc dt:dt="string">2015-02-11T14:51:56Z</DateUtc></StartTime><FrequencyChanges><FrequencyChange><Frequency dt:dt="r8">2327510000</Frequency><Timestamp dt:dt="r8">909333814760</Timestamp><Current dt:dt="r8">0</Current><DateUtc dt:dt="string">2015-02-11T14:51:56Z</DateUtc></FrequencyChange></FrequencyChanges></Clock>\n,v4_BCL_bal_d-14-1,60.001,1.0.0.227,1,-743314279,2.0.10.242,2.0.10.242,02-11-2015,2/11/2015 2:51:56 PM,09:51:56,2.0.10.147,97,,,,,,43,1,43,,,,1,,,d,,0.246,,,9.31,,,31.76,,,,,,TrialProc1,,,,vowel 1,vowel 2,2,542,445535,Block2,d1_f0_9_31_f2_31_76_dur_0_246_num_169.wav,,,,
v4_BCL_bal_d,14,1,<?xml version="1.0"?>\n<Clock xmlns:dt="urn:schemas-microsoft-com:datatypes"><Description dt:dt="string">E-Prime Primary Realtime Clock</Description><StartTime><Timestamp dt:dt="int">0</Timestamp><DateUtc dt:dt="string">2015-02-11T14:51:56Z</DateUtc></StartTime><FrequencyChanges><FrequencyChange><Frequency dt:dt="r8">2327510000</Frequency><Timestamp dt:dt="r8">909333814760</Timestamp><Current dt:dt="r8">0</Current><DateUtc dt:dt="string">2015-02-11T14:51:56Z</DateUtc></FrequencyChange></FrequencyChanges></Clock>\n,v4_BCL_bal_d-14-1,60.001,1.0.0.227,1,-743314279,2.0.10.242,2.0.10.242,02-11-2015,2/11/2015 2:51:56 PM,09:51:56,2.0.10.147,98,,,,,,44,1,44,,,,1,,,d,,0.253,,,11.66,,,29.13,,,,,,TrialProc1,,,,vowel 1,vowel 2,2,740,447083,Block2,d1_f0_11_66_f2_29_13_dur_0_253_num_123.wav,,,,
v4_BCL_bal_d,14,1,<?xml version="1.0"?>\n<Clock xmlns:dt="urn:schemas-microsoft-com:datatypes"><Description dt:dt="string">E-Prime Primary Realtime Clock</Description><StartTime><Timestamp dt:dt="int">0</Timestamp><DateUtc dt:dt="string">2015-02-11T14:51:56Z</DateUtc></StartTime><FrequencyChanges><FrequencyChange><Frequency dt:dt="r8">2327510000</Frequency><Timestamp dt:dt="r8">909333814760</Timestamp><Current dt:dt="r8">0</Current><DateUtc dt:dt="string">2015-02-11T14:51:56Z</DateUtc></FrequencyChange></FrequencyChanges></Clock>\n,v4_BCL_bal_d-14-1,60.001,1.0.0.227,1,-743314279,2.0.10.242,2.0.10.242,02-11-2015,2/11/2015 2:51:56 PM,09:51:56,2.0.10.147,99,,,,,,45,1,45,,,,1,,,d,,0.25,,,9.9,,,30.93,,,,,,TrialProc1,,,,vowel 1,vowel 2,1,445,448338,Block2,d1_f0_9_90_f2_30_93_dur_0_250_num_129.wav,,,,
v4_BCL_bal_d,14,1,<?xml version="1.0"?>\n<Clock xmlns:dt="urn:schemas-microsoft-com:datatypes"><Description dt:dt="string">E-Prime Primary Realtime Clock</Description><StartTime><Timestamp dt:dt="int">0</Timestamp><DateUtc dt:dt="string">2015-02-11T14:51:56Z</DateUtc></StartTime><FrequencyChanges><FrequencyChange><Frequency dt:dt="r8">2327510000</Frequency><Timestamp dt:dt="r8">909333814760</Timestamp><Current dt:dt="r8">0</Current><DateUtc dt:dt="string">2015-02-11T14:51:56Z</DateUtc></FrequencyChange></FrequencyChanges></Clock>\n,v4_BCL_bal_d-14-1,60.001,1.0.0.227,1,-743314279,2.0.10.242,2.0.10.242,02-11-2015,2/11/2015 2:51:56 PM,09:51:56,2.0.10.147,100,,,,,,46,1,46,,,,2,,,d,,0.25,,,8.6,,,29.76,,,,,,TrialProc1,,,,vowel 1,vowel 2,2,543,449686,Block2,d2_f0_8_60_f2_29_76_dur_0_250_num_484.wav,,,,
v4_BCL_bal_d,14,1,<?xml version="1.0"?>\n<Clock xmlns:dt="urn:schemas-microsoft-com:datatypes"><Description dt:dt="string">E-Prime Primary Realtime Clock</Description><StartTime><Timestamp dt:dt="int">0</Timestamp><DateUtc dt:dt="string">2015-02-11T14:51:56Z</DateUtc></StartTime><FrequencyChanges><FrequencyChange><Frequency dt:dt="r8">2327510000</Frequency><Timestamp dt:dt="r8">909333814760</Timestamp><Current dt:dt="r8">0</Current><DateUtc dt:dt="string">2015-02-11T14:51:56Z</DateUtc></FrequencyChange></FrequencyChanges></Clock>\n,v4_BCL_bal_d-14-1,60.001,1.0.0.227,1,-743314279,2.0.10.242,2.0.10.242,02-11-2015,2/11/2015 2:51:56 PM,09:51:56,2.0.10.147,101,,,,,,47,1,47,,,,2,,,d,,0.253,,,9.24,,,28.37,,,,,,TrialProc1,,,,vowel 1,vowel 2,2,507,451000,Block2,d2_f0_9_24_f2_28_37_dur_0_253_num_469.wav,,,,
v4_BCL_bal_d,14,1,<?xml version="1.0"?>\n<Clock xmlns:dt="urn:schemas-microsoft-com:datatypes"><Description dt:dt="string">E-Prime Primary Realtime Clock</Description><StartTime><Timestamp dt:dt="int">0</Timestamp><DateUtc dt:dt="string">2015-02-11T14:51:56Z</DateUtc></StartTime><FrequencyChanges><FrequencyChange><Frequency dt:dt="r8">2327510000</Frequency><Timestamp dt:dt="r8">909333814760</Timestamp><Current dt:dt="r8">0</Current><DateUtc dt:dt="string">2015-02-11T14:51:56Z</DateUtc></FrequencyChange></FrequencyChanges></Clock>\n,v4_BCL_bal_d-14-1,60.001,1.0.0.227,1,-743314279,2.0.10.242,2.0.10.242,02-11-2015,2/11/2015 2:51:56 PM,09:51:56,2.0.10.147,102,,,,,,48,1,48,,,,2,,,d,,0.255,,,9.06,,,29.48,,,,,,TrialProc1,,,,vowel 1,vowel 2,2,534,452344,Block2,d2_f0_9_06_f2_29_48_dur_0_255_num_474.wav,,,,
v4_BCL_bal_d,14,1,<?xml version="1.0"?>\n<Clock xmlns:dt="urn:schemas-microsoft-com:datatypes"><Description dt:dt="string">E-Prime Primary Realtime Clock</Description><StartTime><Timestamp dt:dt="int">0</Timestamp><DateUtc dt:dt="string">2015-02-11T14:51:56Z</DateUtc></StartTime><FrequencyChanges><FrequencyChange><Frequency dt:dt="r8">2327510000</Frequency><Timestamp dt:dt="r8">909333814760</Timestamp><Current dt:dt="r8">0</Current><DateUtc dt:dt="string">2015-02-11T14:51:56Z</DateUtc></FrequencyChange></FrequencyChanges></Clock>\n,v4_BCL_bal_d-14-1,60.001,1.0.0.227,1,-743314279,2.0.10.242,2.0.10.242,02-11-2015,2/11/2015 2:51:56 PM,09:51:56,2.0.10.147,103,,,,,,49,1,49,,,,2,,,d,,0.254,,,7.93,,,30.08,,,,,,TrialProc1,,,,vowel 1,vowel 2,2,606,453766,Block2,d2_f0_7_93_f2_30_08_dur_0_254_num_449.wav,,,,
v4_BCL_bal_d,14,1,<?xml version="1.0"?>\n<Clock xmlns:dt="urn:schemas-microsoft-com:datatypes"><Description dt:dt="string">E-Prime Primary Realtime Clock</Description><StartTime><Timestamp dt:dt="int">0</Timestamp><DateUtc dt:dt="string">2015-02-11T14:51:56Z</DateUtc></StartTime><FrequencyChanges><FrequencyChange><Frequency dt:dt="r8">2327510000</Frequency><Timestamp dt:dt="r8">909333814760</Timestamp><Current dt:dt="r8">0</Current><DateUtc dt:dt="string">2015-02-11T14:51:56Z</DateUtc></FrequencyChange></FrequencyChanges></Clock>\n,v4_BCL_bal_d-14-1,60.001,1.0.0.227,1,-743314279,2.0.10.242,2.0.10.242,02-11-2015,2/11/2015 2:51:56 PM,09:51:56,2.0.10.147,104,,,,,,50,1,50,,,,1,,,d,,0.258,,,9.63,,,30.86,,,,,,TrialProc1,,,,vowel 1,vowel 2,1,323,454900,Block2,d1_f0_9_63_f2_30_86_dur_0_258_num_158.wav,,,,
v4_BCL_bal_d,14,1,<?xml version="1.0"?>\n<Clock xmlns:dt="urn:schemas-microsoft-com:datatypes"><Description dt:dt="string">E-Prime Primary Realtime Clock</Description><StartTime><Timestamp dt:dt="int">0</Timestamp><DateUtc dt:dt="string">2015-02-11T14:51:56Z</DateUtc></StartTime><FrequencyChanges><FrequencyChange><Frequency dt:dt="r8">2327510000</Frequency><Timestamp dt:dt="r8">909333814760</Timestamp><Current dt:dt="r8">0</Current><DateUtc dt:dt="string">2015-02-11T14:51:56Z</DateUtc></FrequencyChange></FrequencyChanges></Clock>\n,v4_BCL_bal_d-14-1,60.001,1.0.0.227,1,-743314279,2.0.10.242,2.0.10.242,02-11-2015,2/11/2015 2:51:56 PM,09:51:56,2.0.10.147,105,,,,,,51,1,51,,,,1,,,d,,0.25,,,10.3,,,30.27,,,,,,TrialProc1,,,,vowel 1,vowel 2,1,463,456173,Block2,d1_f0_10_30_f2_30_27_dur_0_250_num_112.wav,,,,
v4_BCL_bal_d,14,1,<?xml version="1.0"?>\n<Clock xmlns:dt="urn:schemas-microsoft-com:datatypes"><Description dt:dt="string">E-Prime Primary Realtime Clock</Description><StartTime><Timestamp dt:dt="int">0</Timestamp><DateUtc dt:dt="string">2015-02-11T14:51:56Z</DateUtc></StartTime><FrequencyChanges><FrequencyChange><Frequency dt:dt="r8">2327510000</Frequency><Timestamp dt:dt="r8">909333814760</Timestamp><Current dt:dt="r8">0</Current><DateUtc dt:dt="string">2015-02-11T14:51:56Z</DateUtc></FrequencyChange></FrequencyChanges></Clock>\n,v4_BCL_bal_d-14-1,60.001,1.0.0.227,1,-743314279,2.0.10.242,2.0.10.242,02-11-2015,2/11/2015 2:51:56 PM,09:51:56,2.0.10.147,106,,,,,,52,1,52,,,,2,,,d,,0.248,,,9.55,,,28.87,,,,,,TrialProc1,,,,vowel 1,vowel 2,1,478,457454,Block2,d2_f0_9_55_f2_28_87_dur_0_248_num_465.wav,,,,
v4_BCL_bal_d,14,1,<?xml version="1.0"?>\n<Clock xmlns:dt="urn:schemas-microsoft-com:datatypes"><Description dt:dt="string">E-Prime Primary Realtime Clock</Description><StartTime><Timestamp dt:dt="int">0</Timestamp><DateUtc dt:dt="string">2015-02-11T14:51:56Z</DateUtc></StartTime><FrequencyChanges><FrequencyChange><Frequency dt:dt="r8">2327510000</Frequency><Timestamp dt:dt="r8">909333814760</Timestamp><Current dt:dt="r8">0</Current><DateUtc dt:dt="string">2015-02-11T14:51:56Z</DateUtc></FrequencyChange></FrequencyChanges></Clock>\n,v4_BCL_bal_d-14-1,60.001,1.0.0.227,1,-743314279,2.0.10.242,2.0.10.242,02-11-2015,2/11/2015 2:51:56 PM,09:51:56,2.0.10.147,107,,,,,,53,1,53,,,,1,,,d,,0.25,,,10.76,,,30.16,,,,,,TrialProc1,,,,vowel 1,vowel 2,1,626,458886,Block2,d1_f0_10_76_f2_30_16_dur_0_250_num_185.wav,,,,
v4_BCL_bal_d,14,1,<?xml version="1.0"?>\n<Clock xmlns:dt="urn:schemas-microsoft-com:datatypes"><Description dt:dt="string">E-Prime Primary Realtime Clock</Description><StartTime><Timestamp dt:dt="int">0</Timestamp><DateUtc dt:dt="string">2015-02-11T14:51:56Z</DateUtc></StartTime><FrequencyChanges><FrequencyChange><Frequency dt:dt="r8">2327510000</Frequency><Timestamp dt:dt="r8">909333814760</Timestamp><Current dt:dt="r8">0</Current><DateUtc dt:dt="string">2015-02-11T14:51:56Z</DateUtc></FrequencyChange></FrequencyChanges></Clock>\n,v4_BCL_bal_d-14-1,60.001,1.0.0.227,1,-743314279,2.0.10.242,2.0.10.242,02-11-2015,2/11/2015 2:51:56 PM,09:51:56,2.0.10.147,108,,,,,,54,1,54,,,,1,,,d,,0.252,,,10.37,,,30.85,,,,,,TrialProc1,,,,vowel 1,vowel 2,1,923,460616,Block2,d1_f0_10_37_f2_30_85_dur_0_252_num_195.wav,,,,
v4_BCL_bal_d,14,1,<?xml version="1.0"?>\n<Clock xmlns:dt="urn:schemas-microsoft-com:datatypes"><Description dt:dt="string">E-Prime Primary Realtime Clock</Description><StartTime><Timestamp dt:dt="int">0</Timestamp><DateUtc dt:dt="string">2015-02-11T14:51:56Z</DateUtc></StartTime><FrequencyChanges><FrequencyChange><Frequency dt:dt="r8">2327510000</Frequency><Timestamp dt:dt="r8">909333814760</Timestamp><Current dt:dt="r8">0</Current><DateUtc dt:dt="string">2015-02-11T14:51:56Z</DateUtc></FrequencyChange></FrequencyChanges></Clock>\n,v4_BCL_bal_d-14-1,60.001,1.0.0.227,1,-743314279,2.0.10.242,2.0.10.242,02-11-2015,2/11/2015 2:51:56 PM,09:51:56,2.0.10.147,109,,,,,,55,1,55,,,,1,,,d,,0.255,,,8.72,,,31.28,,,,,,TrialProc1,,,,vowel 1,vowel 2,2,321,461747,Block2,d1_f0_8_72_f2_31_28_dur_0_255_num_109.wav,,,,
v4_BCL_bal_d,14,1,<?xml version="1.0"?>\n<Clock xmlns:dt="urn:schemas-microsoft-com:datatypes"><Description dt:dt="string">E-Prime Primary Realtime Clock</Description><StartTime><Timestamp dt:dt="int">0</Timestamp><DateUtc dt:dt="string">2015-02-11T14:51:56Z</DateUtc></StartTime><FrequencyChanges><FrequencyChange><Frequency dt:dt="r8">2327510000</Frequency><Timestamp dt:dt="r8">909333814760</Timestamp><Current dt:dt="r8">0</Current><DateUtc dt:dt="string">2015-02-11T14:51:56Z</DateUtc></FrequencyChange></FrequencyChanges></Clock>\n,v4_BCL_bal_d-14-1,60.001,1.0.0.227,1,-743314279,2.0.10.242,2.0.10.242,02-11-2015,2/11/2015 2:51:56 PM,09:51:56,2.0.10.147,110,,,,,,56,1,56,,,,2,,,d,,0.245,,,7.12,,,30.27,,,,,,TrialProc1,,,,vowel 1,vowel 2,2,605,463165,Block2,d2_f0_7_12_f2_30_27_dur_0_245_num_420.wav,,,,
v4_BCL_bal_d,14,1,<?xml version="1.0"?>\n<Clock xmlns:dt="urn:schemas-microsoft-com:datatypes"><Description dt:dt="string">E-Prime Primary Realtime Clock</Description><StartTime><Timestamp dt:dt="int">0</Timestamp><DateUtc dt:dt="string">2015-02-11T14:51:56Z</DateUtc></StartTime><FrequencyChanges><FrequencyChange><Frequency dt:dt="r8">2327510000</Frequency><Timestamp dt:dt="r8">909333814760</Timestamp><Current dt:dt="r8">0</Current><DateUtc dt:dt="string">2015-02-11T14:51:56Z</DateUtc></FrequencyChange></FrequencyChanges></Clock>\n,v4_BCL_bal_d-14-1,60.001,1.0.0.227,1,-743314279,2.0.10.242,2.0.10.242,02-11-2015,2/11/2015 2:51:56 PM,09:51:56,2.0.10.147,111,,,,,,57,1,57,,,,2,,,d,,0.247,,,9.65,,,28.16,,,,,,TrialProc1,,,,vowel 1,vowel 2,1,469,464445,Block2,d2_f0_9_65_f2_28_16_dur_0_247_num_401.wav,,,,
v4_BCL_bal_d,14,1,<?xml version="1.0"?>\n<Clock xmlns:dt="urn:schemas-microsoft-com:datatypes"><Description dt:dt="string">E-Prime Primary Realtime Clock</Description><StartTime><Timestamp dt:dt="int">0</Timestamp><DateUtc dt:dt="string">2015-02-11T14:51:56Z</DateUtc></StartTime><FrequencyChanges><FrequencyChange><Frequency dt:dt="r8">2327510000</Frequency><Timestamp dt:dt="r8">909333814760</Timestamp><Current dt:dt="r8">0</Current><DateUtc dt:dt="string">2015-02-11T14:51:56Z</DateUtc></FrequencyChange></FrequencyChanges></Clock>\n,v4_BCL_bal_d-14-1,60.001,1.0.0.227,1,-743314279,2.0.10.242,2.0.10.242,02-11-2015,2/11/2015 2:51:56 PM,09:51:56,2.0.10.147,112,,,,,,58,1,58,,,,2,,,d,,0.249,,,7.66,,,29.98,,,,,,TrialProc1,,,,vowel 1,vowel 2,2,480,465740,Block2,d2_f0_7_66_f2_29_98_dur_0_249_num_466.wav,,,,
v4_BCL_bal_d,14,1,<?xml version="1.0"?>\n<Clock xmlns:dt="urn:schemas-microsoft-com:datatypes"><Description dt:dt="string">E-Prime Primary Realtime Clock</Description><StartTime><Timestamp dt:dt="int">0</Timestamp><DateUtc dt:dt="string">2015-02-11T14:51:56Z</DateUtc></StartTime><FrequencyChanges><FrequencyChange><Frequency dt:dt="r8">2327510000</Frequency><Timestamp dt:dt="r8">909333814760</Timestamp><Current dt:dt="r8">0</Current><DateUtc dt:dt="string">2015-02-11T14:51:56Z</DateUtc></FrequencyChange></FrequencyChanges></Clock>\n,v4_BCL_bal_d-14-1,60.001,1.0.0.227,1,-743314279,2.0.10.242,2.0.10.242,02-11-2015,2/11/2015 2:51:56 PM,09:51:56,2.0.10.147,113,,,,,,59,1,59,,,,1,,,d,,0.253,,,10.24,,,30.59,,,,,,TrialProc1,,,,vowel 1,vowel 2,1,358,466901,Block2,d1_f0_10_24_f2_30_59_dur_0_253_num_182.wav,,,,
v4_BCL_bal_d,14,1,<?xml version="1.0"?>\n<Clock xmlns:dt="urn:schemas-microsoft-com:datatypes"><Description dt:dt="string">E-Prime Primary Realtime Clock</Description><StartTime><Timestamp dt:dt="int">0</Timestamp><DateUtc dt:dt="string">2015-02-11T14:51:56Z</DateUtc></StartTime><FrequencyChanges><FrequencyChange><Frequency dt:dt="r8">2327510000</Frequency><Timestamp dt:dt="r8">909333814760</Timestamp><Current dt:dt="r8">0</Current><DateUtc dt:dt="string">2015-02-11T14:51:56Z</DateUtc></FrequencyChange></FrequencyChanges></Clock>\n,v4_BCL_bal_d-14-1,60.001,1.0.0.227,1,-743314279,2.0.10.242,2.0.10.242,02-11-2015,2/11/2015 2:51:56 PM,09:51:56,2.0.10.147,114,,,,,,60,1,60,,,,2,,,d,,0.245,,,9.08,,,29.17,,,,,,TrialProc1,,,,vowel 1,vowel 2,2,605,468315,Block2,d2_f0_9_08_f2_29_17_dur_0_245_num_424.wav,,,,
v4_BCL_bal_d,14,1,<?xml version="1.0"?>\n<Clock xmlns:dt="urn:schemas-microsoft-com:datatypes"><Description dt:dt="string">E-Prime Primary Realtime Clock</Description><StartTime><Timestamp dt:dt="int">0</Timestamp><DateUtc dt:dt="string">2015-02-11T14:51:56Z</DateUtc></StartTime><FrequencyChanges><FrequencyChange><Frequency dt:dt="r8">2327510000</Frequency><Timestamp dt:dt="r8">909333814760</Timestamp><Current dt:dt="r8">0</Current><DateUtc dt:dt="string">2015-02-11T14:51:56Z</DateUtc></FrequencyChange></FrequencyChanges></Clock>\n,v4_BCL_bal_d-14-1,60.001,1.0.0.227,1,-743314279,2.0.10.242,2.0.10.242,02-11-2015,2/11/2015 2:51:56 PM,09:51:56,2.0.10.147,115,,,,,,61,1,61,,,,2,,,d,,0.251,,,9.1,,,29.26,,,,,,TrialProc1,,,,vowel 1,vowel 2,2,927,470053,Block2,d2_f0_9_10_f2_29_26_dur_0_251_num_438.wav,,,,
v4_BCL_bal_d,14,1,<?xml version="1.0"?>\n<Clock xmlns:dt="urn:schemas-microsoft-com:datatypes"><Description dt:dt="string">E-Prime Primary Realtime Clock</Description><StartTime><Timestamp dt:dt="int">0</Timestamp><DateUtc dt:dt="string">2015-02-11T14:51:56Z</DateUtc></StartTime><FrequencyChanges><FrequencyChange><Frequency dt:dt="r8">2327510000</Frequency><Timestamp dt:dt="r8">909333814760</Timestamp><Current dt:dt="r8">0</Current><DateUtc dt:dt="string">2015-02-11T14:51:56Z</DateUtc></FrequencyChange></FrequencyChanges></Clock>\n,v4_BCL_bal_d-14-1,60.001,1.0.0.227,1,-743314279,2.0.10.242,2.0.10.242,02-11-2015,2/11/2015 2:51:56 PM,09:51:56,2.0.10.147,116,,,,,,62,1,62,,,,1,,,d,,0.252,,,9.3,,,31.2,,,,,,TrialProc1,,,,vowel 1,vowel 2,1,411,471287,Block2,d1_f0_9_30_f2_31_20_dur_0_252_num_186.wav,,,,
v4_BCL_bal_d,14,1,<?xml version="1.0"?>\n<Clock xmlns:dt="urn:schemas-microsoft-com:datatypes"><Description dt:dt="string">E-Prime Primary Realtime Clock</Description><StartTime><Timestamp dt:dt="int">0</Timestamp><DateUtc dt:dt="string">2015-02-11T14:51:56Z</DateUtc></StartTime><FrequencyChanges><FrequencyChange><Frequency dt:dt="r8">2327510000</Frequency><Timestamp dt:dt="r8">909333814760</Timestamp><Current dt:dt="r8">0</Current><DateUtc dt:dt="string">2015-02-11T14:51:56Z</DateUtc></FrequencyChange></FrequencyChanges></Clock>\n,v4_BCL_bal_d-14-1,60.001,1.0.0.227,1,-743314279,2.0.10.242,2.0.10.242,02-11-2015,2/11/2015 2:51:56 PM,09:51:56,2.0.10.147,117,,,,,,63,1,63,,,,2,,,d,,0.248,,,8.8,,,29.22,,,,,,TrialProc1,,,,vowel 1,vowel 2,1,420,472513,Block2,d2_f0_8_80_f2_29_22_dur_0_248_num_460.wav,,,,
v4_BCL_bal_d,14,1,<?xml version="1.0"?>\n<Clock xmlns:dt="urn:schemas-microsoft-com:datatypes"><Description dt:dt="string">E-Prime Primary Realtime Clock</Description><StartTime><Timestamp dt:dt="int">0</Timestamp><DateUtc dt:dt="string">2015-02-11T14:51:56Z</DateUtc></StartTime><FrequencyChanges><FrequencyChange><Frequency dt:dt="r8">2327510000</Frequency><Timestamp dt:dt="r8">909333814760</Timestamp><Current dt:dt="r8">0</Current><DateUtc dt:dt="string">2015-02-11T14:51:56Z</DateUtc></FrequencyChange></FrequencyChanges></Clock>\n,v4_BCL_bal_d-14-1,60.001,1.0.0.227,1,-743314279,2.0.10.242,2.0.10.242,02-11-2015,2/11/2015 2:51:56 PM,09:51:56,2.0.10.147,118,,,,,,64,1,64,,,,1,,,d,,0.251,,,8.49,,,31.63,,,,,,TrialProc1,,,,vowel 1,vowel 2,1,492,473818,Block2,d1_f0_8_49_f2_31_63_dur_0_251_num_143.wav,,,,
v4_BCL_bal_d,14,1,<?xml version="1.0"?>\n<Clock xmlns:dt="urn:schemas-microsoft-com:datatypes"><Description dt:dt="string">E-Prime Primary Realtime Clock</Description><StartTime><Timestamp dt:dt="int">0</Timestamp><DateUtc dt:dt="string">2015-02-11T14:51:56Z</DateUtc></StartTime><FrequencyChanges><FrequencyChange><Frequency dt:dt="r8">2327510000</Frequency><Timestamp dt:dt="r8">909333814760</Timestamp><Current dt:dt="r8">0</Current><DateUtc dt:dt="string">2015-02-11T14:51:56Z</DateUtc></FrequencyChange></FrequencyChanges></Clock>\n,v4_BCL_bal_d-14-1,60.001,1.0.0.227,1,-743314279,2.0.10.242,2.0.10.242,02-11-2015,2/11/2015 2:51:56 PM,09:51:56,2.0.10.147,119,,,,,,65,1,65,,,,1,,,d,,0.247,,,10.14,,,30.75,,,,,,TrialProc1,,,,vowel 1,vowel 2,2,588,475214,Block2,d1_f0_10_14_f2_30_75_dur_0_247_num_128.wav,,,,
v4_BCL_bal_d,14,1,<?xml version="1.0"?>\n<Clock xmlns:dt="urn:schemas-microsoft-com:datatypes"><Description dt:dt="string">E-Prime Primary Realtime Clock</Description><StartTime><Timestamp dt:dt="int">0</Timestamp><DateUtc dt:dt="string">2015-02-11T14:51:56Z</DateUtc></StartTime><FrequencyChanges><FrequencyChange><Frequency dt:dt="r8">2327510000</Frequency><Timestamp dt:dt="r8">909333814760</Timestamp><Current dt:dt="r8">0</Current><DateUtc dt:dt="string">2015-02-11T14:51:56Z</DateUtc></FrequencyChange></FrequencyChanges></Clock>\n,v4_BCL_bal_d-14-1,60.001,1.0.0.227,1,-743314279,2.0.10.242,2.0.10.242,02-11-2015,2/11/2015 2:51:56 PM,09:51:56,2.0.10.147,120,,,,,,66,1,66,,,,1,,,d,,0.255,,,10.12,,,29.98,,,,,,TrialProc1,,,,vowel 1,vowel 2,2,853,476879,Block2,d1_f0_10_12_f2_29_98_dur_0_255_num_188.wav,,,,
v4_BCL_bal_d,14,1,<?xml version="1.0"?>\n<Clock xmlns:dt="urn:schemas-microsoft-com:datatypes"><Description dt:dt="string">E-Prime Primary Realtime Clock</Description><StartTime><Timestamp dt:dt="int">0</Timestamp><DateUtc dt:dt="string">2015-02-11T14:51:56Z</DateUtc></StartTime><FrequencyChanges><FrequencyChange><Frequency dt:dt="r8">2327510000</Frequency><Timestamp dt:dt="r8">909333814760</Timestamp><Current dt:dt="r8">0</Current><DateUtc dt:dt="string">2015-02-11T14:51:56Z</DateUtc></FrequencyChange></FrequencyChanges></Clock>\n,v4_BCL_bal_d-14-1,60.001,1.0.0.227,1,-743314279,2.0.10.242,2.0.10.242,02-11-2015,2/11/2015 2:51:56 PM,09:51:56,2.0.10.147,121,,,,,,67,1,67,,,,1,,,d,,0.243,,,10.11,,,31,,,,,,TrialProc1,,,,vowel 1,vowel 2,1,595,478288,Block2,d1_f0_10_11_f2_31_00_dur_0_243_num_176.wav,,,,
v4_BCL_bal_d,14,1,<?xml version="1.0"?>\n<Clock xmlns:dt="urn:schemas-microsoft-com:datatypes"><Description dt:dt="string">E-Prime Primary Realtime Clock</Description><StartTime><Timestamp dt:dt="int">0</Timestamp><DateUtc dt:dt="string">2015-02-11T14:51:56Z</DateUtc></StartTime><FrequencyChanges><FrequencyChange><Frequency dt:dt="r8">2327510000</Frequency><Timestamp dt:dt="r8">909333814760</Timestamp><Current dt:dt="r8">0</Current><DateUtc dt:dt="string">2015-02-11T14:51:56Z</DateUtc></FrequencyChange></FrequencyChanges></Clock>\n,v4_BCL_bal_d-14-1,60.001,1.0.0.227,1,-743314279,2.0.10.242,2.0.10.242,02-11-2015,2/11/2015 2:51:56 PM,09:51:56,2.0.10.147,122,,,,,,68,1,68,,,,1,,,d,,0.251,,,10.15,,,30.22,,,,,,TrialProc1,,,,vowel 1,vowel 2,2,795,479888,Block2,d1_f0_10_15_f2_30_22_dur_0_251_num_198.wav,,,,
v4_BCL_bal_d,14,1,<?xml version="1.0"?>\n<Clock xmlns:dt="urn:schemas-microsoft-com:datatypes"><Description dt:dt="string">E-Prime Primary Realtime Clock</Description><StartTime><Timestamp dt:dt="int">0</Timestamp><DateUtc dt:dt="string">2015-02-11T14:51:56Z</DateUtc></StartTime><FrequencyChanges><FrequencyChange><Frequency dt:dt="r8">2327510000</Frequency><Timestamp dt:dt="r8">909333814760</Timestamp><Current dt:dt="r8">0</Current><DateUtc dt:dt="string">2015-02-11T14:51:56Z</DateUtc></FrequencyChange></FrequencyChanges></Clock>\n,v4_BCL_bal_d-14-1,60.001,1.0.0.227,1,-743314279,2.0.10.242,2.0.10.242,02-11-2015,2/11/2015 2:51:56 PM,09:51:56,2.0.10.147,123,,,,,,69,1,69,,,,2,,,d,,0.249,,,8.64,,,30.07,,,,,,TrialProc1,,,,vowel 1,vowel 2,2,705,481398,Block2,d2_f0_8_64_f2_30_07_dur_0_249_num_458.wav,,,,
v4_BCL_bal_d,14,1,<?xml version="1.0"?>\n<Clock xmlns:dt="urn:schemas-microsoft-com:datatypes"><Description dt:dt="string">E-Prime Primary Realtime Clock</Description><StartTime><Timestamp dt:dt="int">0</Timestamp><DateUtc dt:dt="string">2015-02-11T14:51:56Z</DateUtc></StartTime><FrequencyChanges><FrequencyChange><Frequency dt:dt="r8">2327510000</Frequency><Timestamp dt:dt="r8">909333814760</Timestamp><Current dt:dt="r8">0</Current><DateUtc dt:dt="string">2015-02-11T14:51:56Z</DateUtc></FrequencyChange></FrequencyChanges></Clock>\n,v4_BCL_bal_d-14-1,60.001,1.0.0.227,1,-743314279,2.0.10.242,2.0.10.242,02-11-2015,2/11/2015 2:51:56 PM,09:51:56,2.0.10.147,124,,,,,,70,1,70,,,,2,,,d,,0.246,,,8.56,,,29.68,,,,,,TrialProc1,,,,vowel 1,vowel 2,2,635,482861,Block2,d2_f0_8_56_f2_29_68_dur_0_246_num_485.wav,,,,
