ExperimentName,Subject,Session,Clock.Information,DataFile.Basename,Display.RefreshRate,ExperimentVersion,Group,RandomSeed,RuntimeVersion,RuntimeVersionExpected,SessionDate,SessionStartDateTimeUtc,SessionTime,StudioVersion,Block,A,B,Block1,Block1.Cycle,Block1.Sample,Block2,Block2.Cycle,Block2.Sample,Block3,Block3.Cycle,Block3.Sample,cat,catA,catB,cons,correct_resp,dur,durA,durB,f0,f0A,f0B,f2,f2A,f2B,PracticeList,PracticeList.Cycle,PracticeList.Sample,Procedure,resp.CRESP,resp.RESP,resp.RT,resp1,resp2,respond.RESP,respond.RT,respond.RTTime,Running,soundfile,testList,testList.Cycle,testList.Sample,X
v4_BCL_bal_g,3,1,<?xml version="1.0"?>\n<Clock xmlns:dt="urn:schemas-microsoft-com:datatypes"><Description dt:dt="string">E-Prime Primary Realtime Clock</Description><StartTime><Timestamp dt:dt="int">0</Timestamp><DateUtc dt:dt="string">2014-09-18T17:54:14Z</DateUtc></StartTime><FrequencyChanges><FrequencyChange><Frequency dt:dt="r8">2327530000</Frequency><Timestamp dt:dt="r8">23514719232662</Timestamp><Current dt:dt="r8">0</Current><DateUtc dt:dt="string">2014-09-18T17:54:14Z</DateUtc></FrequencyChange></FrequencyChanges></Clock>\n,v4_BCL_bal_g-3-1,60.001,1.0.0.222,1,244965570,2.0.10.242,2.0.10.242,09-18-2014,9/18/2014 5:54:15 PM,13:54:15,2.0.10.147,1,,,,,,,,,,,,NA,,,NA,,NA,,,NA,,,NA,,,2,1,1,PracProc,,,,vowel 1,vowel 2,,0,0,PracticeList,kay.wav,,,,
v4_BCL_bal_g,3,1,<?xml version="1.0"?>\n<Clock xmlns:dt="urn:schemas-microsoft-com:datatypes"><Description dt:dt="string">E-Prime Primary Realtime Clock</Description><StartTime><Timestamp dt:dt="int">0</Timestamp><DateUtc dt:dt="string">2014-09-18T17:54:14Z</DateUtc></StartTime><FrequencyChanges><FrequencyChange><Frequency dt:dt="r8">2327530000</Frequency><Timestamp dt:dt="r8">23514719232662</Timestamp><Current dt:dt="r8">0</Current><DateUtc dt:dt="string">2014-09-18T17:54:14Z</DateUtc></FrequencyChange></FrequencyChanges></Clock>\n,v4_BCL_bal_g-3-1,60.001,1.0.0.222,1,244965570,2.0.10.242,2.0.10.242,09-18-2014,9/18/2014 5:54:15 PM,13:54:15,2.0.10.147,2,,,,,,,,,,,,NA,,,NA,,NA,,,NA,,,NA,,,5,1,2,PracProc,,,,vowel 1,vowel 2,,0,0,PracticeList,see.wav,,,,
v4_BCL_bal_g,3,1,<?xml version="1.0"?>\n<Clock xmlns:dt="urn:schemas-microsoft-com:datatypes"><Description dt:dt="string">E-Prime Primary Realtime Clock</Description><StartTime><Timestamp dt:dt="int">0</Timestamp><DateUtc dt:dt="string">2014-09-18T17:54:14Z</DateUtc></StartTime><FrequencyChanges><FrequencyChange><Frequency dt:dt="r8">2327530000</Frequency><Timestamp dt:dt="r8">23514719232662</Timestamp><Current dt:dt="r8">0</Current><DateUtc dt:dt="string">2014-09-18T17:54:14Z</DateUtc></FrequencyChange></FrequencyChanges></Clock>\n,v4_BCL_bal_g-3-1,60.001,1.0.0.222,1,244965570,2.0.10.242,2.0.10.242,09-18-2014,9/18/2014 5:54:15 PM,13:54:15,2.0.10.147,3,,,,,,,,,,,,NA,,,NA,,NA,,,NA,,,NA,,,6,1,3,PracProc,,,,vowel 1,vowel 2,,0,0,PracticeList,say.wav,,,,
v4_BCL_bal_g,3,1,<?xml version="1.0"?>\n<Clock xmlns:dt="urn:schemas-microsoft-com:datatypes"><Description dt:dt="string">E-Prime Primary Realtime Clock</Description><StartTime><Timestamp dt:dt="int">0</Timestamp><DateUtc dt:dt="string">2014-09-18T17:54:14Z</DateUtc></StartTime><FrequencyChanges><FrequencyChange><Frequency dt:dt="r8">2327530000</Frequency><Timestamp dt:dt="r8">23514719232662</Timestamp><Current dt:dt="r8">0</Current><DateUtc dt:dt="string">2014-09-18T17:54:14Z</DateUtc></FrequencyChange></FrequencyChanges></Clock>\n,v4_BCL_bal_g-3-1,60.001,1.0.0.222,1,244965570,2.0.10.242,2.0.10.242,09-18-2014,9/18/2014 5:54:15 PM,13:54:15,2.0.10.147,4,,,,,,,,,,,,NA,,,NA,,NA,,,NA,,,NA,,,3,1,4,PracProc,,,,vowel 1,vowel 2,,0,0,PracticeList,tea.wav,,,,
v4_BCL_bal_g,3,1,<?xml version="1.0"?>\n<Clock xmlns:dt="urn:schemas-microsoft-com:datatypes"><Description dt:dt="string">E-Prime Primary Realtime Clock</Description><StartTime><Timestamp dt:dt="int">0</Timestamp><DateUtc dt:dt="string">2014-09-18T17:54:14Z</DateUtc></StartTime><FrequencyChanges><FrequencyChange><Frequency dt:dt="r8">2327530000</Frequency><Timestamp dt:dt="r8">23514719232662</Timestamp><Current dt:dt="r8">0</Current><DateUtc dt:dt="string">2014-09-18T17:54:14Z</DateUtc></FrequencyChange></FrequencyChanges></Clock>\n,v4_BCL_bal_g-3-1,60.001,1.0.0.222,1,244965570,2.0.10.242,2.0.10.242,09-18-2014,9/18/2014 5:54:15 PM,13:54:15,2.0.10.147,5,,,,,,,,,,,,NA,,,NA,,NA,,,NA,,,NA,,,1,1,5,PracProc,,,,vowel 1,vowel 2,,0,0,PracticeList,key.wav,,,,
v4_BCL_bal_g,3,1,<?xml version="1.0"?>\n<Clock xmlns:dt="urn:schemas-microsoft-com:datatypes"><Description dt:dt="string">E-Prime Primary Realtime Clock</Description><StartTime><Timestamp dt:dt="int">0</Timestamp><DateUtc dt:dt="string">2014-09-18T17:54:14Z</DateUtc></StartTime><FrequencyChanges><FrequencyChange><Frequency dt:dt="r8">2327530000</Frequency><Timestamp dt:dt="r8">23514719232662</Timestamp><Current dt:dt="r8">0</Current><DateUtc dt:dt="string">2014-09-18T17:54:14Z</DateUtc></FrequencyChange></FrequencyChanges></Clock>\n,v4_BCL_bal_g-3-1,60.001,1.0.0.222,1,244965570,2.0.10.242,2.0.10.242,09-18-2014,9/18/2014 5:54:15 PM,13:54:15,2.0.10.147,6,,,,,,,,,,,,NA,,,NA,,NA,,,NA,,,NA,,,4,1,6,PracProc,,,,vowel 1,vowel 2,,0,0,PracticeList,tay.wav,,,,
v4_BCL_bal_g,3,1,<?xml version="1.0"?>\n<Clock xmlns:dt="urn:schemas-microsoft-com:datatypes"><Description dt:dt="string">E-Prime Primary Realtime Clock</Description><StartTime><Timestamp dt:dt="int">0</Timestamp><DateUtc dt:dt="string">2014-09-18T17:54:14Z</DateUtc></StartTime><FrequencyChanges><FrequencyChange><Frequency dt:dt="r8">2327530000</Frequency><Timestamp dt:dt="r8">23514719232662</Timestamp><Current dt:dt="r8">0</Current><DateUtc dt:dt="string">2014-09-18T17:54:14Z</DateUtc></FrequencyChange></FrequencyChanges></Clock>\n,v4_BCL_bal_g-3-1,60.001,1.0.0.222,1,244965570,2.0.10.242,2.0.10.242,09-18-2014,9/18/2014 5:54:15 PM,13:54:15,2.0.10.147,7,,,,,,,,,,,,NA,,,NA,,NA,,,NA,,,NA,,,1,2,7,PracProc,,,,vowel 1,vowel 2,2,969,214577,PracticeList,key.wav,,,,
v4_BCL_bal_g,3,1,<?xml version="1.0"?>\n<Clock xmlns:dt="urn:schemas-microsoft-com:datatypes"><Description dt:dt="string">E-Prime Primary Realtime Clock</Description><StartTime><Timestamp dt:dt="int">0</Timestamp><DateUtc dt:dt="string">2014-09-18T17:54:14Z</DateUtc></StartTime><FrequencyChanges><FrequencyChange><Frequency dt:dt="r8">2327530000</Frequency><Timestamp dt:dt="r8">23514719232662</Timestamp><Current dt:dt="r8">0</Current><DateUtc dt:dt="string">2014-09-18T17:54:14Z</DateUtc></FrequencyChange></FrequencyChanges></Clock>\n,v4_BCL_bal_g-3-1,60.001,1.0.0.222,1,244965570,2.0.10.242,2.0.10.242,09-18-2014,9/18/2014 5:54:15 PM,13:54:15,2.0.10.147,8,,,,,,,,,,,,NA,,,NA,,NA,,,NA,,,NA,,,6,2,8,PracProc,,,,vowel 1,vowel 2,,0,0,PracticeList,say.wav,,,,
v4_BCL_bal_g,3,1,<?xml version="1.0"?>\n<Clock xmlns:dt="urn:schemas-microsoft-com:datatypes"><Description dt:dt="string">E-Prime Primary Realtime Clock</Description><StartTime><Timestamp dt:dt="int">0</Timestamp><DateUtc dt:dt="string">2014-09-18T17:54:14Z</DateUtc></StartTime><FrequencyChanges><FrequencyChange><Frequency dt:dt="r8">2327530000</Frequency><Timestamp dt:dt="r8">23514719232662</Timestamp><Current dt:dt="r8">0</Current><DateUtc dt:dt="string">2014-09-18T17:54:14Z</DateUtc></FrequencyChange></FrequencyChanges></Clock>\n,v4_BCL_bal_g-3-1,60.001,1.0.0.222,1,244965570,2.0.10.242,2.0.10.242,09-18-2014,9/18/2014 5:54:15 PM,13:54:15,2.0.10.147,9,,,,,,,,,,,,NA,,,NA,,NA,,,NA,,,NA,,,5,2,9,PracProc,,,,vowel 1,vowel 2,,0,0,PracticeList,see.wav,,,,
v4_BCL_bal_g,3,1,<?xml version="1.0"?>\n<Clock xmlns:dt="urn:schemas-microsoft-com:datatypes"><Description dt:dt="string">E-Prime Primary Realtime Clock</Description><StartTime><Timestamp dt:dt="int">0</Timestamp><DateUtc dt:dt="string">2014-09-18T17:54:14Z</DateUtc></StartTime><FrequencyChanges><FrequencyChange><Frequency dt:dt="r8">2327530000</Frequency><Timestamp dt:dt="r8">23514719232662</Timestamp><Current dt:dt="r8">0</Current><DateUtc dt:dt="string">2014-09-18T17:54:14Z</DateUtc></FrequencyChange></FrequencyChanges></Clock>\n,v4_BCL_bal_g-3-1,60.001,1.0.0.222,1,244965570,2.0.10.242,2.0.10.242,09-18-2014,9/18/2014 5:54:15 PM,13:54:15,2.0.10.147,10,,,,,,,,,,,,NA,,,NA,,NA,,,NA,,,NA,,,2,2,10,PracProc,,,,vowel 1,vowel 2,,0,0,PracticeList,kay.wav,,,,
v4_BCL_bal_g,3,1,<?xml version="1.0"?>\n<Clock xmlns:dt="urn:schemas-microsoft-com:datatypes"><Description dt:dt="string">E-Prime Primary Realtime Clock</Description><StartTime><Timestamp dt:dt="int">0</Timestamp><DateUtc dt:dt="string">2014-09-18T17:54:14Z</DateUtc></StartTime><FrequencyChanges><FrequencyChange><Frequency dt:dt="r8">2327530000</Frequency><Timestamp dt:dt="r8">23514719232662</Timestamp><Current dt:dt="r8">0</Current><DateUtc dt:dt="string">2014-09-18T17:54:14Z</DateUtc></FrequencyChange></FrequencyChanges></Clock>\n,v4_BCL_bal_g-3-1,60.001,1.0.0.222,1,244965570,2.0.10.242,2.0.10.242,09-18-2014,9/18/2014 5:54:15 PM,13:54:15,2.0.10.147,11,,,,,,,,,,,,NA,,,NA,,NA,,,NA,,,NA,,,3,2,11,PracProc,,,,vowel 1,vowel 2,,0,0,PracticeList,tea.wav,,,,
v4_BCL_bal_g,3,1,<?xml version="1.0"?>\n<Clock xmlns:dt="urn:schemas-microsoft-com:datatypes"><Description dt:dt="string">E-Prime Primary Realtime Clock</Description><StartTime><Timestamp dt:dt="int">0</Timestamp><DateUtc dt:dt="string">2014-09-18T17:54:14Z</DateUtc></StartTime><FrequencyChanges><FrequencyChange><Frequency dt:dt="r8">2327530000</Frequency><Timestamp dt:dt="r8">23514719232662</Timestamp><Current dt:dt="r8">0</Current><DateUtc dt:dt="string">2014-09-18T17:54:14Z</DateUtc></FrequencyChange></FrequencyChanges></Clock>\n,v4_BCL_bal_g-3-1,60.001,1.0.0.222,1,244965570,2.0.10.242,2.0.10.242,09-18-2014,9/18/2014 5:54:15 PM,13:54:15,2.0.10.147,12,,,,,,,,,,,,NA,,,NA,,NA,,,NA,,,NA,,,4,2,12,PracProc,,,,vowel 1,vowel 2,,0,0,PracticeList,tay.wav,,,,
v4_BCL_bal_g,3,1,<?xml version="1.0"?>\n<Clock xmlns:dt="urn:schemas-microsoft-com:datatypes"><Description dt:dt="string">E-Prime Primary Realtime Clock</Description><StartTime><Timestamp dt:dt="int">0</Timestamp><DateUtc dt:dt="string">2014-09-18T17:54:14Z</DateUtc></StartTime><FrequencyChanges><FrequencyChange><Frequency dt:dt="r8">2327530000</Frequency><Timestamp dt:dt="r8">23514719232662</Timestamp><Current dt:dt="r8">0</Current><DateUtc dt:dt="string">2014-09-18T17:54:14Z</DateUtc></FrequencyChange></FrequencyChanges></Clock>\n,v4_BCL_bal_g-3-1,60.001,1.0.0.222,1,244965570,2.0.10.242,2.0.10.242,09-18-2014,9/18/2014 5:54:15 PM,13:54:15,2.0.10.147,13,,,,,,,,,,,,NA,,,NA,,NA,,,NA,,,NA,,,1,3,13,PracProc,,,,vowel 1,vowel 2,,0,0,PracticeList,key.wav,,,,
v4_BCL_bal_g,3,1,<?xml version="1.0"?>\n<Clock xmlns:dt="urn:schemas-microsoft-com:datatypes"><Description dt:dt="string">E-Prime Primary Realtime Clock</Description><StartTime><Timestamp dt:dt="int">0</Timestamp><DateUtc dt:dt="string">2014-09-18T17:54:14Z</DateUtc></StartTime><FrequencyChanges><FrequencyChange><Frequency dt:dt="r8">2327530000</Frequency><Timestamp dt:dt="r8">23514719232662</Timestamp><Current dt:dt="r8">0</Current><DateUtc dt:dt="string">2014-09-18T17:54:14Z</DateUtc></FrequencyChange></FrequencyChanges></Clock>\n,v4_BCL_bal_g-3-1,60.001,1.0.0.222,1,244965570,2.0.10.242,2.0.10.242,09-18-2014,9/18/2014 5:54:15 PM,13:54:15,2.0.10.147,14,,,,,,,,,,,,NA,,,NA,,NA,,,NA,,,NA,,,2,3,14,PracProc,,,,vowel 1,vowel 2,,0,0,PracticeList,kay.wav,,,,
v4_BCL_bal_g,3,1,<?xml version="1.0"?>\n<Clock xmlns:dt="urn:schemas-microsoft-com:datatypes"><Description dt:dt="string">E-Prime Primary Realtime Clock</Description><StartTime><Timestamp dt:dt="int">0</Timestamp><DateUtc dt:dt="string">2014-09-18T17:54:14Z</DateUtc></StartTime><FrequencyChanges><FrequencyChange><Frequency dt:dt="r8">2327530000</Frequency><Timestamp dt:dt="r8">23514719232662</Timestamp><Current dt:dt="r8">0</Current><DateUtc dt:dt="string">2014-09-18T17:54:14Z</DateUtc></FrequencyChange></FrequencyChanges></Clock>\n,v4_BCL_bal_g-3-1,60.001,1.0.0.222,1,244965570,2.0.10.242,2.0.10.242,09-18-2014,9/18/2014 5:54:15 PM,13:54:15,2.0.10.147,15,,,,,,,,,,,,NA,,,NA,,NA,,,NA,,,NA,,,4,3,15,PracProc,,,,vowel 1,vowel 2,,0,0,PracticeList,tay.wav,,,,
v4_BCL_bal_g,3,1,<?xml version="1.0"?>\n<Clock xmlns:dt="urn:schemas-microsoft-com:datatypes"><Description dt:dt="string">E-Prime Primary Realtime Clock</Description><StartTime><Timestamp dt:dt="int">0</Timestamp><DateUtc dt:dt="string">2014-09-18T17:54:14Z</DateUtc></StartTime><FrequencyChanges><FrequencyChange><Frequency dt:dt="r8">2327530000</Frequency><Timestamp dt:dt="r8">23514719232662</Timestamp><Current dt:dt="r8">0</Current><DateUtc dt:dt="string">2014-09-18T17:54:14Z</DateUtc></FrequencyChange></FrequencyChanges></Clock>\n,v4_BCL_bal_g-3-1,60.001,1.0.0.222,1,244965570,2.0.10.242,2.0.10.242,09-18-2014,9/18/2014 5:54:15 PM,13:54:15,2.0.10.147,16,,,,,,,,,,,,NA,,,NA,,NA,,,NA,,,NA,,,5,3,16,PracProc,,,,vowel 1,vowel 2,,0,0,PracticeList,see.wav,,,,
v4_BCL_bal_g,3,1,<?xml version="1.0"?>\n<Clock xmlns:dt="urn:schemas-microsoft-com:datatypes"><Description dt:dt="string">E-Prime Primary Realtime Clock</Description><StartTime><Timestamp dt:dt="int">0</Timestamp><DateUtc dt:dt="string">2014-09-18T17:54:14Z</DateUtc></StartTime><FrequencyChanges><FrequencyChange><Frequency dt:dt="r8">2327530000</Frequency><Timestamp dt:dt="r8">23514719232662</Timestamp><Current dt:dt="r8">0</Current><DateUtc dt:dt="string">2014-09-18T17:54:14Z</DateUtc></FrequencyChange></FrequencyChanges></Clock>\n,v4_BCL_bal_g-3-1,60.001,1.0.0.222,1,244965570,2.0.10.242,2.0.10.242,09-18-2014,9/18/2014 5:54:15 PM,13:54:15,2.0.10.147,17,,,,,,,,,,,,NA,,,NA,,NA,,,NA,,,NA,,,6,3,17,PracProc,,,,vowel 1,vowel 2,,0,0,PracticeList,say.wav,,,,
v4_BCL_bal_g,3,1,<?xml version="1.0"?>\n<Clock xmlns:dt="urn:schemas-microsoft-com:datatypes"><Description dt:dt="string">E-Prime Primary Realtime Clock</Description><StartTime><Timestamp dt:dt="int">0</Timestamp><DateUtc dt:dt="string">2014-09-18T17:54:14Z</DateUtc></StartTime><FrequencyChanges><FrequencyChange><Frequency dt:dt="r8">2327530000</Frequency><Timestamp dt:dt="r8">23514719232662</Timestamp><Current dt:dt="r8">0</Current><DateUtc dt:dt="string">2014-09-18T17:54:14Z</DateUtc></FrequencyChange></FrequencyChanges></Clock>\n,v4_BCL_bal_g-3-1,60.001,1.0.0.222,1,244965570,2.0.10.242,2.0.10.242,09-18-2014,9/18/2014 5:54:15 PM,13:54:15,2.0.10.147,18,,,,,,,,,,,,NA,,,NA,,NA,,,NA,,,NA,,,3,3,18,PracProc,,,,vowel 1,vowel 2,2,991,240515,PracticeList,tea.wav,,,,
v4_BCL_bal_g,3,1,<?xml version="1.0"?>\n<Clock xmlns:dt="urn:schemas-microsoft-com:datatypes"><Description dt:dt="string">E-Prime Primary Realtime Clock</Description><StartTime><Timestamp dt:dt="int">0</Timestamp><DateUtc dt:dt="string">2014-09-18T17:54:14Z</DateUtc></StartTime><FrequencyChanges><FrequencyChange><Frequency dt:dt="r8">2327530000</Frequency><Timestamp dt:dt="r8">23514719232662</Timestamp><Current dt:dt="r8">0</Current><DateUtc dt:dt="string">2014-09-18T17:54:14Z</DateUtc></FrequencyChange></FrequencyChanges></Clock>\n,v4_BCL_bal_g-3-1,60.001,1.0.0.222,1,244965570,2.0.10.242,2.0.10.242,09-18-2014,9/18/2014 5:54:15 PM,13:54:15,2.0.10.147,19,,,19,1,1,,,,,,,2,,,d,,0.246,,,9.05,,,29.08,,,,,,ExposureProc,,,,vowel 1,vowel 2,,,,Block1,d2_f0_9_05_f2_29_08_dur_0_246_num_447.wav,,,,
v4_BCL_bal_g,3,1,<?xml version="1.0"?>\n<Clock xmlns:dt="urn:schemas-microsoft-com:datatypes"><Description dt:dt="string">E-Prime Primary Realtime Clock</Description><StartTime><Timestamp dt:dt="int">0</Timestamp><DateUtc dt:dt="string">2014-09-18T17:54:14Z</DateUtc></StartTime><FrequencyChanges><FrequencyChange><Frequency dt:dt="r8">2327530000</Frequency><Timestamp dt:dt="r8">23514719232662</Timestamp><Current dt:dt="r8">0</Current><DateUtc dt:dt="string">2014-09-18T17:54:14Z</DateUtc></FrequencyChange></FrequencyChanges></Clock>\n,v4_BCL_bal_g-3-1,60.001,1.0.0.222,1,244965570,2.0.10.242,2.0.10.242,09-18-2014,9/18/2014 5:54:15 PM,13:54:15,2.0.10.147,20,,,16,1,2,,,,,,,2,,,d,,0.252,,,9.56,,,28.47,,,,,,ExposureProc,,,,vowel 1,vowel 2,,,,Block1,d2_f0_9_56_f2_28_47_dur_0_252_num_415.wav,,,,
v4_BCL_bal_g,3,1,<?xml version="1.0"?>\n<Clock xmlns:dt="urn:schemas-microsoft-com:datatypes"><Description dt:dt="string">E-Prime Primary Realtime Clock</Description><StartTime><Timestamp dt:dt="int">0</Timestamp><DateUtc dt:dt="string">2014-09-18T17:54:14Z</DateUtc></StartTime><FrequencyChanges><FrequencyChange><Frequency dt:dt="r8">2327530000</Frequency><Timestamp dt:dt="r8">23514719232662</Timestamp><Current dt:dt="r8">0</Current><DateUtc dt:dt="string">2014-09-18T17:54:14Z</DateUtc></FrequencyChange></FrequencyChanges></Clock>\n,v4_BCL_bal_g-3-1,60.001,1.0.0.222,1,244965570,2.0.10.242,2.0.10.242,09-18-2014,9/18/2014 5:54:15 PM,13:54:15,2.0.10.147,21,,,35,1,3,,,,,,,1,,,g,,0.253,,,9.69,,,30.27,,,,,,ExposureProc,,,,vowel 1,vowel 2,,,,Block1,g1_f0_9_69_f2_30_27_dur_0_253_num_265.wav,,,,
v4_BCL_bal_g,3,1,<?xml version="1.0"?>\n<Clock xmlns:dt="urn:schemas-microsoft-com:datatypes"><Description dt:dt="string">E-Prime Primary Realtime Clock</Description><StartTime><Timestamp dt:dt="int">0</Timestamp><DateUtc dt:dt="string">2014-09-18T17:54:14Z</DateUtc></StartTime><FrequencyChanges><FrequencyChange><Frequency dt:dt="r8">2327530000</Frequency><Timestamp dt:dt="r8">23514719232662</Timestamp><Current dt:dt="r8">0</Current><DateUtc dt:dt="string">2014-09-18T17:54:14Z</DateUtc></FrequencyChange></FrequencyChanges></Clock>\n,v4_BCL_bal_g-3-1,60.001,1.0.0.222,1,244965570,2.0.10.242,2.0.10.242,09-18-2014,9/18/2014 5:54:15 PM,13:54:15,2.0.10.147,22,,,34,1,4,,,,,,,2,,,g,,0.25,,,8.41,,,29.83,,,,,,ExposureProc,,,,vowel 1,vowel 2,,,,Block1,g2_f0_8_41_f2_29_83_dur_0_250_num_505.wav,,,,
v4_BCL_bal_g,3,1,<?xml version="1.0"?>\n<Clock xmlns:dt="urn:schemas-microsoft-com:datatypes"><Description dt:dt="string">E-Prime Primary Realtime Clock</Description><StartTime><Timestamp dt:dt="int">0</Timestamp><DateUtc dt:dt="string">2014-09-18T17:54:14Z</DateUtc></StartTime><FrequencyChanges><FrequencyChange><Frequency dt:dt="r8">2327530000</Frequency><Timestamp dt:dt="r8">23514719232662</Timestamp><Current dt:dt="r8">0</Current><DateUtc dt:dt="string">2014-09-18T17:54:14Z</DateUtc></FrequencyChange></FrequencyChanges></Clock>\n,v4_BCL_bal_g-3-1,60.001,1.0.0.222,1,244965570,2.0.10.242,2.0.10.242,09-18-2014,9/18/2014 5:54:15 PM,13:54:15,2.0.10.147,23,,,8,1,5,,,,,,,2,,,b,,0.252,,,9.34,,,28.86,,,,,,ExposureProc,,,,vowel 1,vowel 2,,,,Block1,b2_f0_9_34_f2_28_86_dur_0_252_num_400.wav,,,,
v4_BCL_bal_g,3,1,<?xml version="1.0"?>\n<Clock xmlns:dt="urn:schemas-microsoft-com:datatypes"><Description dt:dt="string">E-Prime Primary Realtime Clock</Description><StartTime><Timestamp dt:dt="int">0</Timestamp><DateUtc dt:dt="string">2014-09-18T17:54:14Z</DateUtc></StartTime><FrequencyChanges><FrequencyChange><Frequency dt:dt="r8">2327530000</Frequency><Timestamp dt:dt="r8">23514719232662</Timestamp><Current dt:dt="r8">0</Current><DateUtc dt:dt="string">2014-09-18T17:54:14Z</DateUtc></FrequencyChange></FrequencyChanges></Clock>\n,v4_BCL_bal_g-3-1,60.001,1.0.0.222,1,244965570,2.0.10.242,2.0.10.242,09-18-2014,9/18/2014 5:54:15 PM,13:54:15,2.0.10.147,24,,,29,1,6,,,,,,,1,,,g,,0.246,,,9.52,,,31.14,,,,,,ExposureProc,,,,vowel 1,vowel 2,,,,Block1,g1_f0_9_52_f2_31_14_dur_0_246_num_225.wav,,,,
v4_BCL_bal_g,3,1,<?xml version="1.0"?>\n<Clock xmlns:dt="urn:schemas-microsoft-com:datatypes"><Description dt:dt="string">E-Prime Primary Realtime Clock</Description><StartTime><Timestamp dt:dt="int">0</Timestamp><DateUtc dt:dt="string">2014-09-18T17:54:14Z</DateUtc></StartTime><FrequencyChanges><FrequencyChange><Frequency dt:dt="r8">2327530000</Frequency><Timestamp dt:dt="r8">23514719232662</Timestamp><Current dt:dt="r8">0</Current><DateUtc dt:dt="string">2014-09-18T17:54:14Z</DateUtc></FrequencyChange></FrequencyChanges></Clock>\n,v4_BCL_bal_g-3-1,60.001,1.0.0.222,1,244965570,2.0.10.242,2.0.10.242,09-18-2014,9/18/2014 5:54:15 PM,13:54:15,2.0.10.147,25,,,1,1,7,,,,,,,2,,,b,,0.252,,,8.56,,,29.37,,,,,,ExposureProc,,,,Vowel 1,Vowel 2,,,,Block1,b2_f0_8_56_f2_29_37_dur_0_252_num_346.wav,,,,
v4_BCL_bal_g,3,1,<?xml version="1.0"?>\n<Clock xmlns:dt="urn:schemas-microsoft-com:datatypes"><Description dt:dt="string">E-Prime Primary Realtime Clock</Description><StartTime><Timestamp dt:dt="int">0</Timestamp><DateUtc dt:dt="string">2014-09-18T17:54:14Z</DateUtc></StartTime><FrequencyChanges><FrequencyChange><Frequency dt:dt="r8">2327530000</Frequency><Timestamp dt:dt="r8">23514719232662</Timestamp><Current dt:dt="r8">0</Current><DateUtc dt:dt="string">2014-09-18T17:54:14Z</DateUtc></FrequencyChange></FrequencyChanges></Clock>\n,v4_BCL_bal_g-3-1,60.001,1.0.0.222,1,244965570,2.0.10.242,2.0.10.242,09-18-2014,9/18/2014 5:54:15 PM,13:54:15,2.0.10.147,26,,,4,1,8,,,,,,,1,,,b,,0.248,,,10.04,,,30.78,,,,,,ExposureProc,,,,vowel 1,vowel 2,,,,Block1,b1_f0_10_04_f2_30_78_dur_0_248_num_61.wav,,,,
v4_BCL_bal_g,3,1,<?xml version="1.0"?>\n<Clock xmlns:dt="urn:schemas-microsoft-com:datatypes"><Description dt:dt="string">E-Prime Primary Realtime Clock</Description><StartTime><Timestamp dt:dt="int">0</Timestamp><DateUtc dt:dt="string">2014-09-18T17:54:14Z</DateUtc></StartTime><FrequencyChanges><FrequencyChange><Frequency dt:dt="r8">2327530000</Frequency><Timestamp dt:dt="r8">23514719232662</Timestamp><Current dt:dt="r8">0</Current><DateUtc dt:dt="string">2014-09-18T17:54:14Z</DateUtc></FrequencyChange></FrequencyChanges></Clock>\n,v4_BCL_bal_g-3-1,60.001,1.0.0.222,1,244965570,2.0.10.242,2.0.10.242,09-18-2014,9/18/2014 5:54:15 PM,13:54:15,2.0.10.147,27,,,33,1,9,,,,,,,2,,,g,,0.25,,,8.05,,,30.24,,,,,,ExposureProc,,,,vowel 1,vowel 2,,,,Block1,g2_f0_8_05_f2_30_24_dur_0_250_num_516.wav,,,,
v4_BCL_bal_g,3,1,<?xml version="1.0"?>\n<Clock xmlns:dt="urn:schemas-microsoft-com:datatypes"><Description dt:dt="string">E-Prime Primary Realtime Clock</Description><StartTime><Timestamp dt:dt="int">0</Timestamp><DateUtc dt:dt="string">2014-09-18T17:54:14Z</DateUtc></StartTime><FrequencyChanges><FrequencyChange><Frequency dt:dt="r8">2327530000</Frequency><Timestamp dt:dt="r8">23514719232662</Timestamp><Current dt:dt="r8">0</Current><DateUtc dt:dt="string">2014-09-18T17:54:14Z</DateUtc></FrequencyChange></FrequencyChanges></Clock>\n,v4_BCL_bal_g-3-1,60.001,1.0.0.222,1,244965570,2.0.10.242,2.0.10.242,09-18-2014,9/18/2014 5:54:15 PM,13:54:15,2.0.10.147,28,,,30,1,10,,,,,,,2,,,g,,0.25,,,8.83,,,29.58,,,,,,ExposureProc,,,,vowel 1,vowel 2,,,,Block1,g2_f0_8_83_f2_29_58_dur_0_250_num_511.wav,,,,
v4_BCL_bal_g,3,1,<?xml version="1.0"?>\n<Clock xmlns:dt="urn:schemas-microsoft-com:datatypes"><Description dt:dt="string">E-Prime Primary Realtime Clock</Description><StartTime><Timestamp dt:dt="int">0</Timestamp><DateUtc dt:dt="string">2014-09-18T17:54:14Z</DateUtc></StartTime><FrequencyChanges><FrequencyChange><Frequency dt:dt="r8">2327530000</Frequency><Timestamp dt:dt="r8">23514719232662</Timestamp><Current dt:dt="r8">0</Current><DateUtc dt:dt="string">2014-09-18T17:54:14Z</DateUtc></FrequencyChange></FrequencyChanges></Clock>\n,v4_BCL_bal_g-3-1,60.001,1.0.0.222,1,244965570,2.0.10.242,2.0.10.242,09-18-2014,9/18/2014 5:54:15 PM,13:54:15,2.0.10.147,29,,,18,1,11,,,,,,,1,,,d,,0.244,,,9.82,,,30.89,,,,,,ExposureProc,,,,vowel 1,vowel 2,,,,Block1,d1_f0_9_82_f2_30_89_dur_0_244_num_189.wav,,,,
v4_BCL_bal_g,3,1,<?xml version="1.0"?>\n<Clock xmlns:dt="urn:schemas-microsoft-com:datatypes"><Description dt:dt="string">E-Prime Primary Realtime Clock</Description><StartTime><Timestamp dt:dt="int">0</Timestamp><DateUtc dt:dt="string">2014-09-18T17:54:14Z</DateUtc></StartTime><FrequencyChanges><FrequencyChange><Frequency dt:dt="r8">2327530000</Frequency><Timestamp dt:dt="r8">23514719232662</Timestamp><Current dt:dt="r8">0</Current><DateUtc dt:dt="string">2014-09-18T17:54:14Z</DateUtc></FrequencyChange></FrequencyChanges></Clock>\n,v4_BCL_bal_g-3-1,60.001,1.0.0.222,1,244965570,2.0.10.242,2.0.10.242,09-18-2014,9/18/2014 5:54:15 PM,13:54:15,2.0.10.147,30,,,13,1,12,,,,,,,1,,,d,,0.249,,,9.78,,,30.81,,,,,,ExposureProc,,,,vowel 1,vowel 2,,,,Block1,d1_f0_9_78_f2_30_81_dur_0_249_num_104.wav,,,,
v4_BCL_bal_g,3,1,<?xml version="1.0"?>\n<Clock xmlns:dt="urn:schemas-microsoft-com:datatypes"><Description dt:dt="string">E-Prime Primary Realtime Clock</Description><StartTime><Timestamp dt:dt="int">0</Timestamp><DateUtc dt:dt="string">2014-09-18T17:54:14Z</DateUtc></StartTime><FrequencyChanges><FrequencyChange><Frequency dt:dt="r8">2327530000</Frequency><Timestamp dt:dt="r8">23514719232662</Timestamp><Current dt:dt="r8">0</Current><DateUtc dt:dt="string">2014-09-18T17:54:14Z</DateUtc></FrequencyChange></FrequencyChanges></Clock>\n,v4_BCL_bal_g-3-1,60.001,1.0.0.222,1,244965570,2.0.10.242,2.0.10.242,09-18-2014,9/18/2014 5:54:15 PM,13:54:15,2.0.10.147,31,,,6,1,13,,,,,,,2,,,b,,0.251,,,8.93,,,29.96,,,,,,ExposureProc,,,,vowel 1,vowel 2,,,,Block1,b2_f0_8_93_f2_29_96_dur_0_251_num_332.wav,,,,
v4_BCL_bal_g,3,1,<?xml version="1.0"?>\n<Clock xmlns:dt="urn:schemas-microsoft-com:datatypes"><Description dt:dt="string">E-Prime Primary Realtime Clock</Description><StartTime><Timestamp dt:dt="int">0</Timestamp><DateUtc dt:dt="string">2014-09-18T17:54:14Z</DateUtc></StartTime><FrequencyChanges><FrequencyChange><Frequency dt:dt="r8">2327530000</Frequency><Timestamp dt:dt="r8">23514719232662</Timestamp><Current dt:dt="r8">0</Current><DateUtc dt:dt="string">2014-09-18T17:54:14Z</DateUtc></FrequencyChange></FrequencyChanges></Clock>\n,v4_BCL_bal_g-3-1,60.001,1.0.0.222,1,244965570,2.0.10.242,2.0.10.242,09-18-2014,9/18/2014 5:54:15 PM,13:54:15,2.0.10.147,32,,,27,1,14,,,,,,,1,,,g,,0.249,,,9.68,,,29.89,,,,,,ExposureProc,,,,vowel 1,vowel 2,,,,Block1,g1_f0_9_68_f2_29_89_dur_0_249_num_283.wav,,,,
v4_BCL_bal_g,3,1,<?xml version="1.0"?>\n<Clock xmlns:dt="urn:schemas-microsoft-com:datatypes"><Description dt:dt="string">E-Prime Primary Realtime Clock</Description><StartTime><Timestamp dt:dt="int">0</Timestamp><DateUtc dt:dt="string">2014-09-18T17:54:14Z</DateUtc></StartTime><FrequencyChanges><FrequencyChange><Frequency dt:dt="r8">2327530000</Frequency><Timestamp dt:dt="r8">23514719232662</Timestamp><Current dt:dt="r8">0</Current><DateUtc dt:dt="string">2014-09-18T17:54:14Z</DateUtc></FrequencyChange></FrequencyChanges></Clock>\n,v4_BCL_bal_g-3-1,60.001,1.0.0.222,1,244965570,2.0.10.242,2.0.10.242,09-18-2014,9/18/2014 5:54:15 PM,13:54:15,2.0.10.147,33,,,23,1,15,,,,,,,2,,,d,,0.251,,,8.23,,,30.53,,,,,,ExposureProc,,,,vowel 1,vowel 2,,,,Block1,d2_f0_8_23_f2_30_53_dur_0_251_num_464.wav,,,,
v4_BCL_bal_g,3,1,<?xml version="1.0"?>\n<Clock xmlns:dt="urn:schemas-microsoft-com:datatypes"><Description dt:dt="string">E-Prime Primary Realtime Clock</Description><StartTime><Timestamp dt:dt="int">0</Timestamp><DateUtc dt:dt="string">2014-09-18T17:54:14Z</DateUtc></StartTime><FrequencyChanges><FrequencyChange><Frequency dt:dt="r8">2327530000</Frequency><Timestamp dt:dt="r8">23514719232662</Timestamp><Current dt:dt="r8">0</Current><DateUtc dt:dt="string">2014-09-18T17:54:14Z</DateUtc></FrequencyChange></FrequencyChanges></Clock>\n,v4_BCL_bal_g-3-1,60.001,1.0.0.222,1,244965570,2.0.10.242,2.0.10.242,09-18-2014,9/18/2014 5:54:15 PM,13:54:15,2.0.10.147,34,,,9,1,16,,,,,,,2,,,b,,0.249,,,7.5,,,31.1,,,,,,ExposureProc,,,,vowel 1,vowel 2,,,,Block1,b2_f0_7_50_f2_31_10_dur_0_249_num_349.wav,,,,
v4_BCL_bal_g,3,1,<?xml version="1.0"?>\n<Clock xmlns:dt="urn:schemas-microsoft-com:datatypes"><Description dt:dt="string">E-Prime Primary Realtime Clock</Description><StartTime><Timestamp dt:dt="int">0</Timestamp><DateUtc dt:dt="string">2014-09-18T17:54:14Z</DateUtc></StartTime><FrequencyChanges><FrequencyChange><Frequency dt:dt="r8">2327530000</Frequency><Timestamp dt:dt="r8">23514719232662</Timestamp><Current dt:dt="r8">0</Current><DateUtc dt:dt="string">2014-09-18T17:54:14Z</DateUtc></FrequencyChange></FrequencyChanges></Clock>\n,v4_BCL_bal_g-3-1,60.001,1.0.0.222,1,244965570,2.0.10.242,2.0.10.242,09-18-2014,9/18/2014 5:54:15 PM,13:54:15,2.0.10.147,35,,,10,1,17,,,,,,,1,,,b,,0.251,,,9.91,,,29.71,,,,,,ExposureProc,,,,vowel 1,vowel 2,,,,Block1,b1_f0_9_91_f2_29_71_dur_0_251_num_97.wav,,,,
v4_BCL_bal_g,3,1,<?xml version="1.0"?>\n<Clock xmlns:dt="urn:schemas-microsoft-com:datatypes"><Description dt:dt="string">E-Prime Primary Realtime Clock</Description><StartTime><Timestamp dt:dt="int">0</Timestamp><DateUtc dt:dt="string">2014-09-18T17:54:14Z</DateUtc></StartTime><FrequencyChanges><FrequencyChange><Frequency dt:dt="r8">2327530000</Frequency><Timestamp dt:dt="r8">23514719232662</Timestamp><Current dt:dt="r8">0</Current><DateUtc dt:dt="string">2014-09-18T17:54:14Z</DateUtc></FrequencyChange></FrequencyChanges></Clock>\n,v4_BCL_bal_g-3-1,60.001,1.0.0.222,1,244965570,2.0.10.242,2.0.10.242,09-18-2014,9/18/2014 5:54:15 PM,13:54:15,2.0.10.147,36,,,5,1,18,,,,,,,1,,,b,,0.251,,,10.34,,,29.71,,,,,,ExposureProc,,,,vowel 1,vowel 2,,,,Block1,b1_f0_10_34_f2_29_71_dur_0_251_num_49.wav,,,,
v4_BCL_bal_g,3,1,<?xml version="1.0"?>\n<Clock xmlns:dt="urn:schemas-microsoft-com:datatypes"><Description dt:dt="string">E-Prime Primary Realtime Clock</Description><StartTime><Timestamp dt:dt="int">0</Timestamp><DateUtc dt:dt="string">2014-09-18T17:54:14Z</DateUtc></StartTime><FrequencyChanges><FrequencyChange><Frequency dt:dt="r8">2327530000</Frequency><Timestamp dt:dt="r8">23514719232662</Timestamp><Current dt:dt="r8">0</Current><DateUtc dt:dt="string">2014-09-18T17:54:14Z</DateUtc></FrequencyChange></FrequencyChanges></Clock>\n,v4_BCL_bal_g-3-1,60.001,1.0.0.222,1,244965570,2.0.10.242,2.0.10.242,09-18-2014,9/18/2014 5:54:15 PM,13:54:15,2.0.10.147,37,,,26,1,19,,,,,,,1,,,g,,0.25,,,9.2,,,30.98,,,,,,ExposureProc,,,,vowel 1,vowel 2,,,,Block1,g1_f0_9_20_f2_30_98_dur_0_250_num_224.wav,,,,
v4_BCL_bal_g,3,1,<?xml version="1.0"?>\n<Clock xmlns:dt="urn:schemas-microsoft-com:datatypes"><Description dt:dt="string">E-Prime Primary Realtime Clock</Description><StartTime><Timestamp dt:dt="int">0</Timestamp><DateUtc dt:dt="string">2014-09-18T17:54:14Z</DateUtc></StartTime><FrequencyChanges><FrequencyChange><Frequency dt:dt="r8">2327530000</Frequency><Timestamp dt:dt="r8">23514719232662</Timestamp><Current dt:dt="r8">0</Current><DateUtc dt:dt="string">2014-09-18T17:54:14Z</DateUtc></FrequencyChange></FrequencyChanges></Clock>\n,v4_BCL_bal_g-3-1,60.001,1.0.0.222,1,244965570,2.0.10.242,2.0.10.242,09-18-2014,9/18/2014 5:54:15 PM,13:54:15,2.0.10.147,38,,,12,1,20,,,,,,,2,,,b,,0.249,,,8.68,,,30.12,,,,,,ExposureProc,,,,vowel 1,vowel 2,,,,Block1,b2_f0_8_68_f2_30_12_dur_0_249_num_373.wav,,,,
v4_BCL_bal_g,3,1,<?xml version="1.0"?>\n<Clock xmlns:dt="urn:schemas-microsoft-com:datatypes"><Description dt:dt="string">E-Prime Primary Realtime Clock</Description><StartTime><Timestamp dt:dt="int">0</Timestamp><DateUtc dt:dt="string">2014-09-18T17:54:14Z</DateUtc></StartTime><FrequencyChanges><FrequencyChange><Frequency dt:dt="r8">2327530000</Frequency><Timestamp dt:dt="r8">23514719232662</Timestamp><Current dt:dt="r8">0</Current><DateUtc dt:dt="string">2014-09-18T17:54:14Z</DateUtc></FrequencyChange></FrequencyChanges></Clock>\n,v4_BCL_bal_g-3-1,60.001,1.0.0.222,1,244965570,2.0.10.242,2.0.10.242,09-18-2014,9/18/2014 5:54:15 PM,13:54:15,2.0.10.147,39,,,31,1,21,,,,,,,1,,,g,,0.248,,,9.49,,,30.67,,,,,,ExposureProc,,,,vowel 1,vowel 2,,,,Block1,g1_f0_9_49_f2_30_67_dur_0_248_num_276.wav,,,,
v4_BCL_bal_g,3,1,<?xml version="1.0"?>\n<Clock xmlns:dt="urn:schemas-microsoft-com:datatypes"><Description dt:dt="string">E-Prime Primary Realtime Clock</Description><StartTime><Timestamp dt:dt="int">0</Timestamp><DateUtc dt:dt="string">2014-09-18T17:54:14Z</DateUtc></StartTime><FrequencyChanges><FrequencyChange><Frequency dt:dt="r8">2327530000</Frequency><Timestamp dt:dt="r8">23514719232662</Timestamp><Current dt:dt="r8">0</Current><DateUtc dt:dt="string">2014-09-18T17:54:14Z</DateUtc></FrequencyChange></FrequencyChanges></Clock>\n,v4_BCL_bal_g-3-1,60.001,1.0.0.222,1,244965570,2.0.10.242,2.0.10.242,09-18-2014,9/18/2014 5:54:15 PM,13:54:15,2.0.10.147,40,,,25,1,22,,,,,,,1,,,g,,0.247,,,9.86,,,30.57,,,,,,ExposureProc,,,,vowel 1,vowel 2,,,,Block1,g1_f0_9_86_f2_30_57_dur_0_247_num_244.wav,,,,
v4_BCL_bal_g,3,1,<?xml version="1.0"?>\n<Clock xmlns:dt="urn:schemas-microsoft-com:datatypes"><Description dt:dt="string">E-Prime Primary Realtime Clock</Description><StartTime><Timestamp dt:dt="int">0</Timestamp><DateUtc dt:dt="string">2014-09-18T17:54:14Z</DateUtc></StartTime><FrequencyChanges><FrequencyChange><Frequency dt:dt="r8">2327530000</Frequency><Timestamp dt:dt="r8">23514719232662</Timestamp><Current dt:dt="r8">0</Current><DateUtc dt:dt="string">2014-09-18T17:54:14Z</DateUtc></FrequencyChange></FrequencyChanges></Clock>\n,v4_BCL_bal_g-3-1,60.001,1.0.0.222,1,244965570,2.0.10.242,2.0.10.242,09-18-2014,9/18/2014 5:54:15 PM,13:54:15,2.0.10.147,41,,,3,1,23,,,,,,,1,,,b,,0.248,,,9.76,,,30.96,,,,,,ExposureProc,,,,vowel 1,vowel 2,,,,Block1,b1_f0_9_76_f2_30_96_dur_0_248_num_98.wav,,,,
v4_BCL_bal_g,3,1,<?xml version="1.0"?>\n<Clock xmlns:dt="urn:schemas-microsoft-com:datatypes"><Description dt:dt="string">E-Prime Primary Realtime Clock</Description><StartTime><Timestamp dt:dt="int">0</Timestamp><DateUtc dt:dt="string">2014-09-18T17:54:14Z</DateUtc></StartTime><FrequencyChanges><FrequencyChange><Frequency dt:dt="r8">2327530000</Frequency><Timestamp dt:dt="r8">23514719232662</Timestamp><Current dt:dt="r8">0</Current><DateUtc dt:dt="string">2014-09-18T17:54:14Z</DateUtc></FrequencyChange></FrequencyChanges></Clock>\n,v4_BCL_bal_g-3-1,60.001,1.0.0.222,1,244965570,2.0.10.242,2.0.10.242,09-18-2014,9/18/2014 5:54:15 PM,13:54:15,2.0.10.147,42,,,24,1,24,,,,,,,2,,,d,,0.247,,,8.76,,,29.49,,,,,,ExposureProc,,,,vowel 1,vowel 2,,,,Block1,d2_f0_8_76_f2_29_49_dur_0_247_num_435.wav,,,,
v4_BCL_bal_g,3,1,<?xml version="1.0"?>\n<Clock xmlns:dt="urn:schemas-microsoft-com:datatypes"><Description dt:dt="string">E-Prime Primary Realtime Clock</Description><StartTime><Timestamp dt:dt="int">0</Timestamp><DateUtc dt:dt="string">2014-09-18T17:54:14Z</DateUtc></StartTime><FrequencyChanges><FrequencyChange><Frequency dt:dt="r8">2327530000</Frequency><Timestamp dt:dt="r8">23514719232662</Timestamp><Current dt:dt="r8">0</Current><DateUtc dt:dt="string">2014-09-18T17:54:14Z</DateUtc></FrequencyChange></FrequencyChanges></Clock>\n,v4_BCL_bal_g-3-1,60.001,1.0.0.222,1,244965570,2.0.10.242,2.0.10.242,09-18-2014,9/18/2014 5:54:15 PM,13:54:15,2.0.10.147,43,,,7,1,25,,,,,,,1,,,b,,0.253,,,9.88,,,30.22,,,,,,ExposureProc,,,,vowel 1,vowel 2,,,,Block1,b1_f0_9_88_f2_30_22_dur_0_253_num_52.wav,,,,
v4_BCL_bal_g,3,1,<?xml version="1.0"?>\n<Clock xmlns:dt="urn:schemas-microsoft-com:datatypes"><Description dt:dt="string">E-Prime Primary Realtime Clock</Description><StartTime><Timestamp dt:dt="int">0</Timestamp><DateUtc dt:dt="string">2014-09-18T17:54:14Z</DateUtc></StartTime><FrequencyChanges><FrequencyChange><Frequency dt:dt="r8">2327530000</Frequency><Timestamp dt:dt="r8">23514719232662</Timestamp><Current dt:dt="r8">0</Current><DateUtc dt:dt="string">2014-09-18T17:54:14Z</DateUtc></FrequencyChange></FrequencyChanges></Clock>\n,v4_BCL_bal_g-3-1,60.001,1.0.0.222,1,244965570,2.0.10.242,2.0.10.242,09-18-2014,9/18/2014 5:54:15 PM,13:54:15,2.0.10.147,44,,,21,1,26,,,,,,,1,,,d,,0.248,,,9.06,,,31.49,,,,,,ExposureProc,,,,vowel 1,vowel 2,,,,Block1,d1_f0_9_06_f2_31_49_dur_0_248_num_155.wav,,,,
v4_BCL_bal_g,3,1,<?xml version="1.0"?>\n<Clock xmlns:dt="urn:schemas-microsoft-com:datatypes"><Description dt:dt="string">E-Prime Primary Realtime Clock</Description><StartTime><Timestamp dt:dt="int">0</Timestamp><DateUtc dt:dt="string">2014-09-18T17:54:14Z</DateUtc></StartTime><FrequencyChanges><FrequencyChange><Frequency dt:dt="r8">2327530000</Frequency><Timestamp dt:dt="r8">23514719232662</Timestamp><Current dt:dt="r8">0</Current><DateUtc dt:dt="string">2014-09-18T17:54:14Z</DateUtc></FrequencyChange></FrequencyChanges></Clock>\n,v4_BCL_bal_g-3-1,60.001,1.0.0.222,1,244965570,2.0.10.242,2.0.10.242,09-18-2014,9/18/2014 5:54:15 PM,13:54:15,2.0.10.147,45,,,11,1,27,,,,,,,2,,,b,,0.248,,,9.94,,,28.91,,,,,,ExposureProc,,,,vowel 1,vowel 2,,,,Block1,b2_f0_9_94_f2_28_91_dur_0_248_num_364.wav,,,,
v4_BCL_bal_g,3,1,<?xml version="1.0"?>\n<Clock xmlns:dt="urn:schemas-microsoft-com:datatypes"><Description dt:dt="string">E-Prime Primary Realtime Clock</Description><StartTime><Timestamp dt:dt="int">0</Timestamp><DateUtc dt:dt="string">2014-09-18T17:54:14Z</DateUtc></StartTime><FrequencyChanges><FrequencyChange><Frequency dt:dt="r8">2327530000</Frequency><Timestamp dt:dt="r8">23514719232662</Timestamp><Current dt:dt="r8">0</Current><DateUtc dt:dt="string">2014-09-18T17:54:14Z</DateUtc></FrequencyChange></FrequencyChanges></Clock>\n,v4_BCL_bal_g-3-1,60.001,1.0.0.222,1,244965570,2.0.10.242,2.0.10.242,09-18-2014,9/18/2014 5:54:15 PM,13:54:15,2.0.10.147,46,,,15,1,28,,,,,,,2,,,d,,0.249,,,8.16,,,30.1,,,,,,ExposureProc,,,,vowel 1,vowel 2,,,,Block1,d2_f0_8_16_f2_30_10_dur_0_249_num_410.wav,,,,
v4_BCL_bal_g,3,1,<?xml version="1.0"?>\n<Clock xmlns:dt="urn:schemas-microsoft-com:datatypes"><Description dt:dt="string">E-Prime Primary Realtime Clock</Description><StartTime><Timestamp dt:dt="int">0</Timestamp><DateUtc dt:dt="string">2014-09-18T17:54:14Z</DateUtc></StartTime><FrequencyChanges><FrequencyChange><Frequency dt:dt="r8">2327530000</Frequency><Timestamp dt:dt="r8">23514719232662</Timestamp><Current dt:dt="r8">0</Current><DateUtc dt:dt="string">2014-09-18T17:54:14Z</DateUtc></FrequencyChange></FrequencyChanges></Clock>\n,v4_BCL_bal_g-3-1,60.001,1.0.0.222,1,244965570,2.0.10.242,2.0.10.242,09-18-2014,9/18/2014 5:54:15 PM,13:54:15,2.0.10.147,47,,,36,1,29,,,,,,,2,,,g,,0.251,,,9.48,,,28.04,,,,,,ExposureProc,,,,vowel 1,vowel 2,,,,Block1,g2_f0_9_48_f2_28_04_dur_0_251_num_554.wav,,,,
v4_BCL_bal_g,3,1,<?xml version="1.0"?>\n<Clock xmlns:dt="urn:schemas-microsoft-com:datatypes"><Description dt:dt="string">E-Prime Primary Realtime Clock</Description><StartTime><Timestamp dt:dt="int">0</Timestamp><DateUtc dt:dt="string">2014-09-18T17:54:14Z</DateUtc></StartTime><FrequencyChanges><FrequencyChange><Frequency dt:dt="r8">2327530000</Frequency><Timestamp dt:dt="r8">23514719232662</Timestamp><Current dt:dt="r8">0</Current><DateUtc dt:dt="string">2014-09-18T17:54:14Z</DateUtc></FrequencyChange></FrequencyChanges></Clock>\n,v4_BCL_bal_g-3-1,60.001,1.0.0.222,1,244965570,2.0.10.242,2.0.10.242,09-18-2014,9/18/2014 5:54:15 PM,13:54:15,2.0.10.147,48,,,28,1,30,,,,,,,2,,,g,,0.249,,,7,,,31.82,,,,,,ExposureProc,,,,vowel 1,vowel 2,,,,Block1,g2_f0_7_00_f2_31_82_dur_0_249_num_546.wav,,,,
v4_BCL_bal_g,3,1,<?xml version="1.0"?>\n<Clock xmlns:dt="urn:schemas-microsoft-com:datatypes"><Description dt:dt="string">E-Prime Primary Realtime Clock</Description><StartTime><Timestamp dt:dt="int">0</Timestamp><DateUtc dt:dt="string">2014-09-18T17:54:14Z</DateUtc></StartTime><FrequencyChanges><FrequencyChange><Frequency dt:dt="r8">2327530000</Frequency><Timestamp dt:dt="r8">23514719232662</Timestamp><Current dt:dt="r8">0</Current><DateUtc dt:dt="string">2014-09-18T17:54:14Z</DateUtc></FrequencyChange></FrequencyChanges></Clock>\n,v4_BCL_bal_g-3-1,60.001,1.0.0.222,1,244965570,2.0.10.242,2.0.10.242,09-18-2014,9/18/2014 5:54:15 PM,13:54:15,2.0.10.147,49,,,2,1,31,,,,,,,1,,,b,,0.249,,,10.41,,,30.13,,,,,,ExposureProc,,,,vowel 1,vowel 2,,,,Block1,b1_f0_10_41_f2_30_13_dur_0_249_num_100.wav,,,,
v4_BCL_bal_g,3,1,<?xml version="1.0"?>\n<Clock xmlns:dt="urn:schemas-microsoft-com:datatypes"><Description dt:dt="string">E-Prime Primary Realtime Clock</Description><StartTime><Timestamp dt:dt="int">0</Timestamp><DateUtc dt:dt="string">2014-09-18T17:54:14Z</DateUtc></StartTime><FrequencyChanges><FrequencyChange><Frequency dt:dt="r8">2327530000</Frequency><Timestamp dt:dt="r8">23514719232662</Timestamp><Current dt:dt="r8">0</Current><DateUtc dt:dt="string">2014-09-18T17:54:14Z</DateUtc></FrequencyChange></FrequencyChanges></Clock>\n,v4_BCL_bal_g-3-1,60.001,1.0.0.222,1,244965570,2.0.10.242,2.0.10.242,09-18-2014,9/18/2014 5:54:15 PM,13:54:15,2.0.10.147,50,,,14,1,32,,,,,,,1,,,d,,0.251,,,9.7,,,30.64,,,,,,ExposureProc,,,,vowel 1,vowel 2,,,,Block1,d1_f0_9_70_f2_30_64_dur_0_251_num_125.wav,,,,
v4_BCL_bal_g,3,1,<?xml version="1.0"?>\n<Clock xmlns:dt="urn:schemas-microsoft-com:datatypes"><Description dt:dt="string">E-Prime Primary Realtime Clock</Description><StartTime><Timestamp dt:dt="int">0</Timestamp><DateUtc dt:dt="string">2014-09-18T17:54:14Z</DateUtc></StartTime><FrequencyChanges><FrequencyChange><Frequency dt:dt="r8">2327530000</Frequency><Timestamp dt:dt="r8">23514719232662</Timestamp><Current dt:dt="r8">0</Current><DateUtc dt:dt="string">2014-09-18T17:54:14Z</DateUtc></FrequencyChange></FrequencyChanges></Clock>\n,v4_BCL_bal_g-3-1,60.001,1.0.0.222,1,244965570,2.0.10.242,2.0.10.242,09-18-2014,9/18/2014 5:54:15 PM,13:54:15,2.0.10.147,51,,,17,1,33,,,,,,,2,,,d,,0.245,,,8.14,,,29.86,,,,,,ExposureProc,,,,vowel 1,vowel 2,,,,Block1,d2_f0_8_14_f2_29_86_dur_0_245_num_455.wav,,,,
v4_BCL_bal_g,3,1,<?xml version="1.0"?>\n<Clock xmlns:dt="urn:schemas-microsoft-com:datatypes"><Description dt:dt="string">E-Prime Primary Realtime Clock</Description><StartTime><Timestamp dt:dt="int">0</Timestamp><DateUtc dt:dt="string">2014-09-18T17:54:14Z</DateUtc></StartTime><FrequencyChanges><FrequencyChange><Frequency dt:dt="r8">2327530000</Frequency><Timestamp dt:dt="r8">23514719232662</Timestamp><Current dt:dt="r8">0</Current><DateUtc dt:dt="string">2014-09-18T17:54:14Z</DateUtc></FrequencyChange></FrequencyChanges></Clock>\n,v4_BCL_bal_g-3-1,60.001,1.0.0.222,1,244965570,2.0.10.242,2.0.10.242,09-18-2014,9/18/2014 5:54:15 PM,13:54:15,2.0.10.147,52,,,22,1,34,,,,,,,1,,,d,,0.252,,,9.66,,,29.68,,,,,,ExposureProc,,,,vowel 1,vowel 2,,,,Block1,d1_f0_9_66_f2_29_68_dur_0_252_num_145.wav,,,,
v4_BCL_bal_g,3,1,<?xml version="1.0"?>\n<Clock xmlns:dt="urn:schemas-microsoft-com:datatypes"><Description dt:dt="string">E-Prime Primary Realtime Clock</Description><StartTime><Timestamp dt:dt="int">0</Timestamp><DateUtc dt:dt="string">2014-09-18T17:54:14Z</DateUtc></StartTime><FrequencyChanges><FrequencyChange><Frequency dt:dt="r8">2327530000</Frequency><Timestamp dt:dt="r8">23514719232662</Timestamp><Current dt:dt="r8">0</Current><DateUtc dt:dt="string">2014-09-18T17:54:14Z</DateUtc></FrequencyChange></FrequencyChanges></Clock>\n,v4_BCL_bal_g-3-1,60.001,1.0.0.222,1,244965570,2.0.10.242,2.0.10.242,09-18-2014,9/18/2014 5:54:15 PM,13:54:15,2.0.10.147,53,,,20,1,35,,,,,,,1,,,d,,0.244,,,9.58,,,30.95,,,,,,ExposureProc,,,,vowel 1,vowel 2,,,,Block1,d1_f0_9_58_f2_30_95_dur_0_244_num_101.wav,,,,
v4_BCL_bal_g,3,1,<?xml version="1.0"?>\n<Clock xmlns:dt="urn:schemas-microsoft-com:datatypes"><Description dt:dt="string">E-Prime Primary Realtime Clock</Description><StartTime><Timestamp dt:dt="int">0</Timestamp><DateUtc dt:dt="string">2014-09-18T17:54:14Z</DateUtc></StartTime><FrequencyChanges><FrequencyChange><Frequency dt:dt="r8">2327530000</Frequency><Timestamp dt:dt="r8">23514719232662</Timestamp><Current dt:dt="r8">0</Current><DateUtc dt:dt="string">2014-09-18T17:54:14Z</DateUtc></FrequencyChange></FrequencyChanges></Clock>\n,v4_BCL_bal_g-3-1,60.001,1.0.0.222,1,244965570,2.0.10.242,2.0.10.242,09-18-2014,9/18/2014 5:54:15 PM,13:54:15,2.0.10.147,54,,,32,1,36,,,,,,,2,,,g,,0.251,,,8.34,,,30.25,,,,,,ExposureProc,,,,vowel 1,vowel 2,,,,Block1,g2_f0_8_34_f2_30_25_dur_0_251_num_599.wav,,,,
v4_BCL_bal_g,3,1,<?xml version="1.0"?>\n<Clock xmlns:dt="urn:schemas-microsoft-com:datatypes"><Description dt:dt="string">E-Prime Primary Realtime Clock</Description><StartTime><Timestamp dt:dt="int">0</Timestamp><DateUtc dt:dt="string">2014-09-18T17:54:14Z</DateUtc></StartTime><FrequencyChanges><FrequencyChange><Frequency dt:dt="r8">2327530000</Frequency><Timestamp dt:dt="r8">23514719232662</Timestamp><Current dt:dt="r8">0</Current><DateUtc dt:dt="string">2014-09-18T17:54:14Z</DateUtc></FrequencyChange></FrequencyChanges></Clock>\n,v4_BCL_bal_g-3-1,60.001,1.0.0.222,1,244965570,2.0.10.242,2.0.10.242,09-18-2014,9/18/2014 5:54:15 PM,13:54:15,2.0.10.147,55,,,,,,1,1,1,,,,1,,,g,,0.247,,,8.22,,,31.7,,,,,,TrialProc1,,,,vowel 1,vowel 2,,0,0,Block2,g1_f0_8_22_f2_31_70_dur_0_247_num_222.wav,,,,
v4_BCL_bal_g,3,1,<?xml version="1.0"?>\n<Clock xmlns:dt="urn:schemas-microsoft-com:datatypes"><Description dt:dt="string">E-Prime Primary Realtime Clock</Description><StartTime><Timestamp dt:dt="int">0</Timestamp><DateUtc dt:dt="string">2014-09-18T17:54:14Z</DateUtc></StartTime><FrequencyChanges><FrequencyChange><Frequency dt:dt="r8">2327530000</Frequency><Timestamp dt:dt="r8">23514719232662</Timestamp><Current dt:dt="r8">0</Current><DateUtc dt:dt="string">2014-09-18T17:54:14Z</DateUtc></FrequencyChange></FrequencyChanges></Clock>\n,v4_BCL_bal_g-3-1,60.001,1.0.0.222,1,244965570,2.0.10.242,2.0.10.242,09-18-2014,9/18/2014 5:54:15 PM,13:54:15,2.0.10.147,56,,,,,,2,1,2,,,,1,,,g,,0.256,,,10.55,,,29.64,,,,,,TrialProc1,,,,vowel 1,vowel 2,1,1112,383267,Block2,g1_f0_10_55_f2_29_64_dur_0_256_num_284.wav,,,,
v4_BCL_bal_g,3,1,<?xml version="1.0"?>\n<Clock xmlns:dt="urn:schemas-microsoft-com:datatypes"><Description dt:dt="string">E-Prime Primary Realtime Clock</Description><StartTime><Timestamp dt:dt="int">0</Timestamp><DateUtc dt:dt="string">2014-09-18T17:54:14Z</DateUtc></StartTime><FrequencyChanges><FrequencyChange><Frequency dt:dt="r8">2327530000</Frequency><Timestamp dt:dt="r8">23514719232662</Timestamp><Current dt:dt="r8">0</Current><DateUtc dt:dt="string">2014-09-18T17:54:14Z</DateUtc></FrequencyChange></FrequencyChanges></Clock>\n,v4_BCL_bal_g-3-1,60.001,1.0.0.222,1,244965570,2.0.10.242,2.0.10.242,09-18-2014,9/18/2014 5:54:15 PM,13:54:15,2.0.10.147,57,,,,,,3,1,3,,,,1,,,g,,0.248,,,9.41,,,30.99,,,,,,TrialProc1,,,,vowel 1,vowel 2,1,1005,385093,Block2,g1_f0_9_41_f2_30_99_dur_0_248_num_255.wav,,,,
v4_BCL_bal_g,3,1,<?xml version="1.0"?>\n<Clock xmlns:dt="urn:schemas-microsoft-com:datatypes"><Description dt:dt="string">E-Prime Primary Realtime Clock</Description><StartTime><Timestamp dt:dt="int">0</Timestamp><DateUtc dt:dt="string">2014-09-18T17:54:14Z</DateUtc></StartTime><FrequencyChanges><FrequencyChange><Frequency dt:dt="r8">2327530000</Frequency><Timestamp dt:dt="r8">23514719232662</Timestamp><Current dt:dt="r8">0</Current><DateUtc dt:dt="string">2014-09-18T17:54:14Z</DateUtc></FrequencyChange></FrequencyChanges></Clock>\n,v4_BCL_bal_g-3-1,60.001,1.0.0.222,1,244965570,2.0.10.242,2.0.10.242,09-18-2014,9/18/2014 5:54:15 PM,13:54:15,2.0.10.147,58,,,,,,4,1,4,,,,1,,,g,,0.245,,,9.64,,,31.06,,,,,,TrialProc1,,,,vowel 1,vowel 2,1,385,386290,Block2,g1_f0_9_64_f2_31_06_dur_0_245_num_289.wav,,,,
v4_BCL_bal_g,3,1,<?xml version="1.0"?>\n<Clock xmlns:dt="urn:schemas-microsoft-com:datatypes"><Description dt:dt="string">E-Prime Primary Realtime Clock</Description><StartTime><Timestamp dt:dt="int">0</Timestamp><DateUtc dt:dt="string">2014-09-18T17:54:14Z</DateUtc></StartTime><FrequencyChanges><FrequencyChange><Frequency dt:dt="r8">2327530000</Frequency><Timestamp dt:dt="r8">23514719232662</Timestamp><Current dt:dt="r8">0</Current><DateUtc dt:dt="string">2014-09-18T17:54:14Z</DateUtc></FrequencyChange></FrequencyChanges></Clock>\n,v4_BCL_bal_g-3-1,60.001,1.0.0.222,1,244965570,2.0.10.242,2.0.10.242,09-18-2014,9/18/2014 5:54:15 PM,13:54:15,2.0.10.147,59,,,,,,5,1,5,,,,1,,,g,,0.246,,,9.98,,,30.26,,,,,,TrialProc1,,,,vowel 1,vowel 2,1,263,387368,Block2,g1_f0_9_98_f2_30_26_dur_0_246_num_275.wav,,,,
v4_BCL_bal_g,3,1,<?xml version="1.0"?>\n<Clock xmlns:dt="urn:schemas-microsoft-com:datatypes"><Description dt:dt="string">E-Prime Primary Realtime Clock</Description><StartTime><Timestamp dt:dt="int">0</Timestamp><DateUtc dt:dt="string">2014-09-18T17:54:14Z</DateUtc></StartTime><FrequencyChanges><FrequencyChange><Frequency dt:dt="r8">2327530000</Frequency><Timestamp dt:dt="r8">23514719232662</Timestamp><Current dt:dt="r8">0</Current><DateUtc dt:dt="string">2014-09-18T17:54:14Z</DateUtc></FrequencyChange></FrequencyChanges></Clock>\n,v4_BCL_bal_g-3-1,60.001,1.0.0.222,1,244965570,2.0.10.242,2.0.10.242,09-18-2014,9/18/2014 5:54:15 PM,13:54:15,2.0.10.147,60,,,,,,6,1,6,,,,1,,,g,,0.245,,,8.81,,,31.66,,,,,,TrialProc1,,,,vowel 1,vowel 2,1,343,388514,Block2,g1_f0_8_81_f2_31_66_dur_0_245_num_232.wav,,,,
v4_BCL_bal_g,3,1,<?xml version="1.0"?>\n<Clock xmlns:dt="urn:schemas-microsoft-com:datatypes"><Description dt:dt="string">E-Prime Primary Realtime Clock</Description><StartTime><Timestamp dt:dt="int">0</Timestamp><DateUtc dt:dt="string">2014-09-18T17:54:14Z</DateUtc></StartTime><FrequencyChanges><FrequencyChange><Frequency dt:dt="r8">2327530000</Frequency><Timestamp dt:dt="r8">23514719232662</Timestamp><Current dt:dt="r8">0</Current><DateUtc dt:dt="string">2014-09-18T17:54:14Z</DateUtc></FrequencyChange></FrequencyChanges></Clock>\n,v4_BCL_bal_g-3-1,60.001,1.0.0.222,1,244965570,2.0.10.242,2.0.10.242,09-18-2014,9/18/2014 5:54:15 PM,13:54:15,2.0.10.147,61,,,,,,7,1,7,,,,2,,,g,,0.254,,,9.21,,,28.63,,,,,,TrialProc1,,,,vowel 1,vowel 2,1,258,389579,Block2,g2_f0_9_21_f2_28_63_dur_0_254_num_580.wav,,,,
v4_BCL_bal_g,3,1,<?xml version="1.0"?>\n<Clock xmlns:dt="urn:schemas-microsoft-com:datatypes"><Description dt:dt="string">E-Prime Primary Realtime Clock</Description><StartTime><Timestamp dt:dt="int">0</Timestamp><DateUtc dt:dt="string">2014-09-18T17:54:14Z</DateUtc></StartTime><FrequencyChanges><FrequencyChange><Frequency dt:dt="r8">2327530000</Frequency><Timestamp dt:dt="r8">23514719232662</Timestamp><Current dt:dt="r8">0</Current><DateUtc dt:dt="string">2014-09-18T17:54:14Z</DateUtc></FrequencyChange></FrequencyChanges></Clock>\n,v4_BCL_bal_g-3-1,60.001,1.0.0.222,1,244965570,2.0.10.242,2.0.10.242,09-18-2014,9/18/2014 5:54:15 PM,13:54:15,2.0.10.147,62,,,,,,8,1,8,,,,1,,,g,,0.243,,,10.48,,,29.82,,,,,,TrialProc1,,,,vowel 1,vowel 2,1,193,390581,Block2,g1_f0_10_48_f2_29_82_dur_0_243_num_208.wav,,,,
v4_BCL_bal_g,3,1,<?xml version="1.0"?>\n<Clock xmlns:dt="urn:schemas-microsoft-com:datatypes"><Description dt:dt="string">E-Prime Primary Realtime Clock</Description><StartTime><Timestamp dt:dt="int">0</Timestamp><DateUtc dt:dt="string">2014-09-18T17:54:14Z</DateUtc></StartTime><FrequencyChanges><FrequencyChange><Frequency dt:dt="r8">2327530000</Frequency><Timestamp dt:dt="r8">23514719232662</Timestamp><Current dt:dt="r8">0</Current><DateUtc dt:dt="string">2014-09-18T17:54:14Z</DateUtc></FrequencyChange></FrequencyChanges></Clock>\n,v4_BCL_bal_g-3-1,60.001,1.0.0.222,1,244965570,2.0.10.242,2.0.10.242,09-18-2014,9/18/2014 5:54:15 PM,13:54:15,2.0.10.147,63,,,,,,9,1,9,,,,2,,,g,,0.251,,,8.48,,,29.46,,,,,,TrialProc1,,,,vowel 1,vowel 2,1,229,391633,Block2,g2_f0_8_48_f2_29_46_dur_0_251_num_553.wav,,,,
v4_BCL_bal_g,3,1,<?xml version="1.0"?>\n<Clock xmlns:dt="urn:schemas-microsoft-com:datatypes"><Description dt:dt="string">E-Prime Primary Realtime Clock</Description><StartTime><Timestamp dt:dt="int">0</Timestamp><DateUtc dt:dt="string">2014-09-18T17:54:14Z</DateUtc></StartTime><FrequencyChanges><FrequencyChange><Frequency dt:dt="r8">2327530000</Frequency><Timestamp dt:dt="r8">23514719232662</Timestamp><Current dt:dt="r8">0</Current><DateUtc dt:dt="string">2014-09-18T17:54:14Z</DateUtc></FrequencyChange></FrequencyChanges></Clock>\n,v4_BCL_bal_g-3-1,60.001,1.0.0.222,1,244965570,2.0.10.242,2.0.10.242,09-18-2014,9/18/2014 5:54:15 PM,13:54:15,2.0.10.147,64,,,,,,10,1,10,,,,2,,,g,,0.247,,,8.32,,,29.61,,,,,,TrialProc1,,,,vowel 1,vowel 2,1,255,392709,Block2,g2_f0_8_32_f2_29_61_dur_0_247_num_545.wav,,,,
v4_BCL_bal_g,3,1,<?xml version="1.0"?>\n<Clock xmlns:dt="urn:schemas-microsoft-com:datatypes"><Description dt:dt="string">E-Prime Primary Realtime Clock</Description><StartTime><Timestamp dt:dt="int">0</Timestamp><DateUtc dt:dt="string">2014-09-18T17:54:14Z</DateUtc></StartTime><FrequencyChanges><FrequencyChange><Frequency dt:dt="r8">2327530000</Frequency><Timestamp dt:dt="r8">23514719232662</Timestamp><Current dt:dt="r8">0</Current><DateUtc dt:dt="string">2014-09-18T17:54:14Z</DateUtc></FrequencyChange></FrequencyChanges></Clock>\n,v4_BCL_bal_g-3-1,60.001,1.0.0.222,1,244965570,2.0.10.242,2.0.10.242,09-18-2014,9/18/2014 5:54:15 PM,13:54:15,2.0.10.147,65,,,,,,11,1,11,,,,1,,,g,,0.249,,,9.45,,,30.97,,,,,,TrialProc1,,,,vowel 1,vowel 2,1,129,393650,Block2,g1_f0_9_45_f2_30_97_dur_0_249_num_215.wav,,,,
v4_BCL_bal_g,3,1,<?xml version="1.0"?>\n<Clock xmlns:dt="urn:schemas-microsoft-com:datatypes"><Description dt:dt="string">E-Prime Primary Realtime Clock</Description><StartTime><Timestamp dt:dt="int">0</Timestamp><DateUtc dt:dt="string">2014-09-18T17:54:14Z</DateUtc></StartTime><FrequencyChanges><FrequencyChange><Frequency dt:dt="r8">2327530000</Frequency><Timestamp dt:dt="r8">23514719232662</Timestamp><Current dt:dt="r8">0</Current><DateUtc dt:dt="string">2014-09-18T17:54:14Z</DateUtc></FrequencyChange></FrequencyChanges></Clock>\n,v4_BCL_bal_g-3-1,60.001,1.0.0.222,1,244965570,2.0.10.242,2.0.10.242,09-18-2014,9/18/2014 5:54:15 PM,13:54:15,2.0.10.147,66,,,,,,12,1,12,,,,2,,,g,,0.246,,,9.49,,,28.98,,,,,,TrialProc1,,,,vowel 1,vowel 2,1,225,394679,Block2,g2_f0_9_49_f2_28_98_dur_0_246_num_596.wav,,,,
v4_BCL_bal_g,3,1,<?xml version="1.0"?>\n<Clock xmlns:dt="urn:schemas-microsoft-com:datatypes"><Description dt:dt="string">E-Prime Primary Realtime Clock</Description><StartTime><Timestamp dt:dt="int">0</Timestamp><DateUtc dt:dt="string">2014-09-18T17:54:14Z</DateUtc></StartTime><FrequencyChanges><FrequencyChange><Frequency dt:dt="r8">2327530000</Frequency><Timestamp dt:dt="r8">23514719232662</Timestamp><Current dt:dt="r8">0</Current><DateUtc dt:dt="string">2014-09-18T17:54:14Z</DateUtc></FrequencyChange></FrequencyChanges></Clock>\n,v4_BCL_bal_g-3-1,60.001,1.0.0.222,1,244965570,2.0.10.242,2.0.10.242,09-18-2014,9/18/2014 5:54:15 PM,13:54:15,2.0.10.147,67,,,,,,13,1,13,,,,2,,,g,,0.248,,,8.86,,,28.64,,,,,,TrialProc1,,,,vowel 1,vowel 2,1,262,395750,Block2,g2_f0_8_86_f2_28_64_dur_0_248_num_561.wav,,,,
v4_BCL_bal_g,3,1,<?xml version="1.0"?>\n<Clock xmlns:dt="urn:schemas-microsoft-com:datatypes"><Description dt:dt="string">E-Prime Primary Realtime Clock</Description><StartTime><Timestamp dt:dt="int">0</Timestamp><DateUtc dt:dt="string">2014-09-18T17:54:14Z</DateUtc></StartTime><FrequencyChanges><FrequencyChange><Frequency dt:dt="r8">2327530000</Frequency><Timestamp dt:dt="r8">23514719232662</Timestamp><Current dt:dt="r8">0</Current><DateUtc dt:dt="string">2014-09-18T17:54:14Z</DateUtc></FrequencyChange></FrequencyChanges></Clock>\n,v4_BCL_bal_g-3-1,60.001,1.0.0.222,1,244965570,2.0.10.242,2.0.10.242,09-18-2014,9/18/2014 5:54:15 PM,13:54:15,2.0.10.147,68,,,,,,14,1,14,,,,2,,,g,,0.251,,,9.3,,,28.17,,,,,,TrialProc1,,,,vowel 1,vowel 2,1,136,396707,Block2,g2_f0_9_30_f2_28_17_dur_0_251_num_523.wav,,,,
v4_BCL_bal_g,3,1,<?xml version="1.0"?>\n<Clock xmlns:dt="urn:schemas-microsoft-com:datatypes"><Description dt:dt="string">E-Prime Primary Realtime Clock</Description><StartTime><Timestamp dt:dt="int">0</Timestamp><DateUtc dt:dt="string">2014-09-18T17:54:14Z</DateUtc></StartTime><FrequencyChanges><FrequencyChange><Frequency dt:dt="r8">2327530000</Frequency><Timestamp dt:dt="r8">23514719232662</Timestamp><Current dt:dt="r8">0</Current><DateUtc dt:dt="string">2014-09-18T17:54:14Z</DateUtc></FrequencyChange></FrequencyChanges></Clock>\n,v4_BCL_bal_g-3-1,60.001,1.0.0.222,1,244965570,2.0.10.242,2.0.10.242,09-18-2014,9/18/2014 5:54:15 PM,13:54:15,2.0.10.147,69,,,,,,15,1,15,,,,2,,,g,,0.252,,,8.11,,,30.49,,,,,,TrialProc1,,,,vowel 1,vowel 2,1,255,397776,Block2,g2_f0_8_11_f2_30_49_dur_0_252_num_533.wav,,,,
v4_BCL_bal_g,3,1,<?xml version="1.0"?>\n<Clock xmlns:dt="urn:schemas-microsoft-com:datatypes"><Description dt:dt="string">E-Prime Primary Realtime Clock</Description><StartTime><Timestamp dt:dt="int">0</Timestamp><DateUtc dt:dt="string">2014-09-18T17:54:14Z</DateUtc></StartTime><FrequencyChanges><FrequencyChange><Frequency dt:dt="r8">2327530000</Frequency><Timestamp dt:dt="r8">23514719232662</Timestamp><Current dt:dt="r8">0</Current><DateUtc dt:dt="string">2014-09-18T17:54:14Z</DateUtc></FrequencyChange></FrequencyChanges></Clock>\n,v4_BCL_bal_g-3-1,60.001,1.0.0.222,1,244965570,2.0.10.242,2.0.10.242,09-18-2014,9/18/2014 5:54:15 PM,13:54:15,2.0.10.147,70,,,,,,16,1,16,,,,2,,,g,,0.251,,,7.78,,,30.89,,,,,,TrialProc1,,,,vowel 1,vowel 2,1,275,398863,Block2,g2_f0_7_78_f2_30_89_dur_0_251_num_594.wav,,,,
v4_BCL_bal_g,3,1,<?xml version="1.0"?>\n<Clock xmlns:dt="urn:schemas-microsoft-com:datatypes"><Description dt:dt="string">E-Prime Primary Realtime Clock</Description><StartTime><Timestamp dt:dt="int">0</Timestamp><DateUtc dt:dt="string">2014-09-18T17:54:14Z</DateUtc></StartTime><FrequencyChanges><FrequencyChange><Frequency dt:dt="r8">2327530000</Frequency><Timestamp dt:dt="r8">23514719232662</Timestamp><Current dt:dt="r8">0</Current><DateUtc dt:dt="string">2014-09-18T17:54:14Z</DateUtc></FrequencyChange></FrequencyChanges></Clock>\n,v4_BCL_bal_g-3-1,60.001,1.0.0.222,1,244965570,2.0.10.242,2.0.10.242,09-18-2014,9/18/2014 5:54:15 PM,13:54:15,2.0.10.147,71,,,,,,17,1,17,,,,1,,,g,,0.25,,,10,,,30.7,,,,,,TrialProc1,,,,vowel 1,vowel 2,1,177,399865,Block2,g1_f0_10_00_f2_30_70_dur_0_250_num_254.wav,,,,
v4_BCL_bal_g,3,1,<?xml version="1.0"?>\n<Clock xmlns:dt="urn:schemas-microsoft-com:datatypes"><Description dt:dt="string">E-Prime Primary Realtime Clock</Description><StartTime><Timestamp dt:dt="int">0</Timestamp><DateUtc dt:dt="string">2014-09-18T17:54:14Z</DateUtc></StartTime><FrequencyChanges><FrequencyChange><Frequency dt:dt="r8">2327530000</Frequency><Timestamp dt:dt="r8">23514719232662</Timestamp><Current dt:dt="r8">0</Current><DateUtc dt:dt="string">2014-09-18T17:54:14Z</DateUtc></FrequencyChange></FrequencyChanges></Clock>\n,v4_BCL_bal_g-3-1,60.001,1.0.0.222,1,244965570,2.0.10.242,2.0.10.242,09-18-2014,9/18/2014 5:54:15 PM,13:54:15,2.0.10.147,72,,,,,,18,1,18,,,,2,,,g,,0.253,,,8.3,,,29.84,,,,,,TrialProc1,,,,vowel 1,vowel 2,1,129,400817,Block2,g2_f0_8_30_f2_29_84_dur_0_253_num_512.wav,,,,
v4_BCL_bal_g,3,1,<?xml version="1.0"?>\n<Clock xmlns:dt="urn:schemas-microsoft-com:datatypes"><Description dt:dt="string">E-Prime Primary Realtime Clock</Description><StartTime><Timestamp dt:dt="int">0</Timestamp><DateUtc dt:dt="string">2014-09-18T17:54:14Z</DateUtc></StartTime><FrequencyChanges><FrequencyChange><Frequency dt:dt="r8">2327530000</Frequency><Timestamp dt:dt="r8">23514719232662</Timestamp><Current dt:dt="r8">0</Current><DateUtc dt:dt="string">2014-09-18T17:54:14Z</DateUtc></FrequencyChange></FrequencyChanges></Clock>\n,v4_BCL_bal_g-3-1,60.001,1.0.0.222,1,244965570,2.0.10.242,2.0.10.242,09-18-2014,9/18/2014 5:54:15 PM,13:54:15,2.0.10.147,73,,,,,,19,1,19,,,,2,,,g,,0.256,,,7.58,,,30.16,,,,,,TrialProc1,,,,vowel 1,vowel 2,1,246,401867,Block2,g2_f0_7_58_f2_30_16_dur_0_256_num_570.wav,,,,
v4_BCL_bal_g,3,1,<?xml version="1.0"?>\n<Clock xmlns:dt="urn:schemas-microsoft-com:datatypes"><Description dt:dt="string">E-Prime Primary Realtime Clock</Description><StartTime><Timestamp dt:dt="int">0</Timestamp><DateUtc dt:dt="string">2014-09-18T17:54:14Z</DateUtc></StartTime><FrequencyChanges><FrequencyChange><Frequency dt:dt="r8">2327530000</Frequency><Timestamp dt:dt="r8">23514719232662</Timestamp><Current dt:dt="r8">0</Current><DateUtc dt:dt="string">2014-09-18T17:54:14Z</DateUtc></FrequencyChange></FrequencyChanges></Clock>\n,v4_BCL_bal_g-3-1,60.001,1.0.0.222,1,244965570,2.0.10.242,2.0.10.242,09-18-2014,9/18/2014 5:54:15 PM,13:54:15,2.0.10.147,74,,,,,,20,1,20,,,,1,,,g,,0.246,,,10.01,,,30.38,,,,,,TrialProc1,,,,vowel 1,vowel 2,1,176,402847,Block2,g1_f0_10_01_f2_30_38_dur_0_246_num_257.wav,,,,
v4_BCL_bal_g,3,1,<?xml version="1.0"?>\n<Clock xmlns:dt="urn:schemas-microsoft-com:datatypes"><Description dt:dt="string">E-Prime Primary Realtime Clock</Description><StartTime><Timestamp dt:dt="int">0</Timestamp><DateUtc dt:dt="string">2014-09-18T17:54:14Z</DateUtc></StartTime><FrequencyChanges><FrequencyChange><Frequency dt:dt="r8">2327530000</Frequency><Timestamp dt:dt="r8">23514719232662</Timestamp><Current dt:dt="r8">0</Current><DateUtc dt:dt="string">2014-09-18T17:54:14Z</DateUtc></FrequencyChange></FrequencyChanges></Clock>\n,v4_BCL_bal_g-3-1,60.001,1.0.0.222,1,244965570,2.0.10.242,2.0.10.242,09-18-2014,9/18/2014 5:54:15 PM,13:54:15,2.0.10.147,75,,,,,,21,1,21,,,,1,,,g,,0.249,,,9.57,,,30.57,,,,,,TrialProc1,,,,vowel 1,vowel 2,1,189,403843,Block2,g1_f0_9_57_f2_30_57_dur_0_249_num_279.wav,,,,
v4_BCL_bal_g,3,1,<?xml version="1.0"?>\n<Clock xmlns:dt="urn:schemas-microsoft-com:datatypes"><Description dt:dt="string">E-Prime Primary Realtime Clock</Description><StartTime><Timestamp dt:dt="int">0</Timestamp><DateUtc dt:dt="string">2014-09-18T17:54:14Z</DateUtc></StartTime><FrequencyChanges><FrequencyChange><Frequency dt:dt="r8">2327530000</Frequency><Timestamp dt:dt="r8">23514719232662</Timestamp><Current dt:dt="r8">0</Current><DateUtc dt:dt="string">2014-09-18T17:54:14Z</DateUtc></FrequencyChange></FrequencyChanges></Clock>\n,v4_BCL_bal_g-3-1,60.001,1.0.0.222,1,244965570,2.0.10.242,2.0.10.242,09-18-2014,9/18/2014 5:54:15 PM,13:54:15,2.0.10.147,76,,,,,,22,1,22,,,,1,,,g,,0.241,,,9.26,,,30.47,,,,,,TrialProc1,,,,vowel 1,vowel 2,1,426,405080,Block2,g1_f0_9_26_f2_30_47_dur_0_241_num_241.wav,,,,
v4_BCL_bal_g,3,1,<?xml version="1.0"?>\n<Clock xmlns:dt="urn:schemas-microsoft-com:datatypes"><Description dt:dt="string">E-Prime Primary Realtime Clock</Description><StartTime><Timestamp dt:dt="int">0</Timestamp><DateUtc dt:dt="string">2014-09-18T17:54:14Z</DateUtc></StartTime><FrequencyChanges><FrequencyChange><Frequency dt:dt="r8">2327530000</Frequency><Timestamp dt:dt="r8">23514719232662</Timestamp><Current dt:dt="r8">0</Current><DateUtc dt:dt="string">2014-09-18T17:54:14Z</DateUtc></FrequencyChange></FrequencyChanges></Clock>\n,v4_BCL_bal_g-3-1,60.001,1.0.0.222,1,244965570,2.0.10.242,2.0.10.242,09-18-2014,9/18/2014 5:54:15 PM,13:54:15,2.0.10.147,77,,,,,,23,1,23,,,,2,,,g,,0.25,,,7.4,,,30.29,,,,,,TrialProc1,,,,vowel 1,vowel 2,1,1164,407052,Block2,g2_f0_7_40_f2_30_29_dur_0_250_num_592.wav,,,,
v4_BCL_bal_g,3,1,<?xml version="1.0"?>\n<Clock xmlns:dt="urn:schemas-microsoft-com:datatypes"><Description dt:dt="string">E-Prime Primary Realtime Clock</Description><StartTime><Timestamp dt:dt="int">0</Timestamp><DateUtc dt:dt="string">2014-09-18T17:54:14Z</DateUtc></StartTime><FrequencyChanges><FrequencyChange><Frequency dt:dt="r8">2327530000</Frequency><Timestamp dt:dt="r8">23514719232662</Timestamp><Current dt:dt="r8">0</Current><DateUtc dt:dt="string">2014-09-18T17:54:14Z</DateUtc></FrequencyChange></FrequencyChanges></Clock>\n,v4_BCL_bal_g-3-1,60.001,1.0.0.222,1,244965570,2.0.10.242,2.0.10.242,09-18-2014,9/18/2014 5:54:15 PM,13:54:15,2.0.10.147,78,,,,,,24,1,24,,,,2,,,g,,0.256,,,8.8,,,29.47,,,,,,TrialProc1,,,,vowel 1,vowel 2,1,859,408730,Block2,g2_f0_8_80_f2_29_47_dur_0_256_num_597.wav,,,,
v4_BCL_bal_g,3,1,<?xml version="1.0"?>\n<Clock xmlns:dt="urn:schemas-microsoft-com:datatypes"><Description dt:dt="string">E-Prime Primary Realtime Clock</Description><StartTime><Timestamp dt:dt="int">0</Timestamp><DateUtc dt:dt="string">2014-09-18T17:54:14Z</DateUtc></StartTime><FrequencyChanges><FrequencyChange><Frequency dt:dt="r8">2327530000</Frequency><Timestamp dt:dt="r8">23514719232662</Timestamp><Current dt:dt="r8">0</Current><DateUtc dt:dt="string">2014-09-18T17:54:14Z</DateUtc></FrequencyChange></FrequencyChanges></Clock>\n,v4_BCL_bal_g-3-1,60.001,1.0.0.222,1,244965570,2.0.10.242,2.0.10.242,09-18-2014,9/18/2014 5:54:15 PM,13:54:15,2.0.10.147,79,,,,,,25,1,25,,,,2,,,g,,0.253,,,8.14,,,30.19,,,,,,TrialProc1,,,,vowel 1,vowel 2,1,376,409930,Block2,g2_f0_8_14_f2_30_19_dur_0_253_num_568.wav,,,,
v4_BCL_bal_g,3,1,<?xml version="1.0"?>\n<Clock xmlns:dt="urn:schemas-microsoft-com:datatypes"><Description dt:dt="string">E-Prime Primary Realtime Clock</Description><StartTime><Timestamp dt:dt="int">0</Timestamp><DateUtc dt:dt="string">2014-09-18T17:54:14Z</DateUtc></StartTime><FrequencyChanges><FrequencyChange><Frequency dt:dt="r8">2327530000</Frequency><Timestamp dt:dt="r8">23514719232662</Timestamp><Current dt:dt="r8">0</Current><DateUtc dt:dt="string">2014-09-18T17:54:14Z</DateUtc></FrequencyChange></FrequencyChanges></Clock>\n,v4_BCL_bal_g-3-1,60.001,1.0.0.222,1,244965570,2.0.10.242,2.0.10.242,09-18-2014,9/18/2014 5:54:15 PM,13:54:15,2.0.10.147,80,,,,,,26,1,26,,,,2,,,g,,0.259,,,7.8,,,29.79,,,,,,TrialProc1,,,,vowel 1,vowel 2,1,231,410968,Block2,g2_f0_7_80_f2_29_79_dur_0_259_num_581.wav,,,,
v4_BCL_bal_g,3,1,<?xml version="1.0"?>\n<Clock xmlns:dt="urn:schemas-microsoft-com:datatypes"><Description dt:dt="string">E-Prime Primary Realtime Clock</Description><StartTime><Timestamp dt:dt="int">0</Timestamp><DateUtc dt:dt="string">2014-09-18T17:54:14Z</DateUtc></StartTime><FrequencyChanges><FrequencyChange><Frequency dt:dt="r8">2327530000</Frequency><Timestamp dt:dt="r8">23514719232662</Timestamp><Current dt:dt="r8">0</Current><DateUtc dt:dt="string">2014-09-18T17:54:14Z</DateUtc></FrequencyChange></FrequencyChanges></Clock>\n,v4_BCL_bal_g-3-1,60.001,1.0.0.222,1,244965570,2.0.10.242,2.0.10.242,09-18-2014,9/18/2014 5:54:15 PM,13:54:15,2.0.10.147,81,,,,,,27,1,27,,,,1,,,g,,0.254,,,9.4,,,30.38,,,,,,TrialProc1,,,,vowel 1,vowel 2,1,325,412112,Block2,g1_f0_9_40_f2_30_38_dur_0_254_num_237.wav,,,,
v4_BCL_bal_g,3,1,<?xml version="1.0"?>\n<Clock xmlns:dt="urn:schemas-microsoft-com:datatypes"><Description dt:dt="string">E-Prime Primary Realtime Clock</Description><StartTime><Timestamp dt:dt="int">0</Timestamp><DateUtc dt:dt="string">2014-09-18T17:54:14Z</DateUtc></StartTime><FrequencyChanges><FrequencyChange><Frequency dt:dt="r8">2327530000</Frequency><Timestamp dt:dt="r8">23514719232662</Timestamp><Current dt:dt="r8">0</Current><DateUtc dt:dt="string">2014-09-18T17:54:14Z</DateUtc></FrequencyChange></FrequencyChanges></Clock>\n,v4_BCL_bal_g-3-1,60.001,1.0.0.222,1,244965570,2.0.10.242,2.0.10.242,09-18-2014,9/18/2014 5:54:15 PM,13:54:15,2.0.10.147,82,,,,,,28,1,28,,,,2,,,g,,0.248,,,8.77,,,29.76,,,,,,TrialProc1,,,,vowel 1,vowel 2,1,146,413083,Block2,g2_f0_8_77_f2_29_76_dur_0_248_num_518.wav,,,,
v4_BCL_bal_g,3,1,<?xml version="1.0"?>\n<Clock xmlns:dt="urn:schemas-microsoft-com:datatypes"><Description dt:dt="string">E-Prime Primary Realtime Clock</Description><StartTime><Timestamp dt:dt="int">0</Timestamp><DateUtc dt:dt="string">2014-09-18T17:54:14Z</DateUtc></StartTime><FrequencyChanges><FrequencyChange><Frequency dt:dt="r8">2327530000</Frequency><Timestamp dt:dt="r8">23514719232662</Timestamp><Current dt:dt="r8">0</Current><DateUtc dt:dt="string">2014-09-18T17:54:14Z</DateUtc></FrequencyChange></FrequencyChanges></Clock>\n,v4_BCL_bal_g-3-1,60.001,1.0.0.222,1,244965570,2.0.10.242,2.0.10.242,09-18-2014,9/18/2014 5:54:15 PM,13:54:15,2.0.10.147,83,,,,,,29,1,29,,,,1,,,g,,0.251,,,9.18,,,31.96,,,,,,TrialProc1,,,,vowel 1,vowel 2,1,146,414050,Block2,g1_f0_9_18_f2_31_96_dur_0_251_num_221.wav,,,,
v4_BCL_bal_g,3,1,<?xml version="1.0"?>\n<Clock xmlns:dt="urn:schemas-microsoft-com:datatypes"><Description dt:dt="string">E-Prime Primary Realtime Clock</Description><StartTime><Timestamp dt:dt="int">0</Timestamp><DateUtc dt:dt="string">2014-09-18T17:54:14Z</DateUtc></StartTime><FrequencyChanges><FrequencyChange><Frequency dt:dt="r8">2327530000</Frequency><Timestamp dt:dt="r8">23514719232662</Timestamp><Current dt:dt="r8">0</Current><DateUtc dt:dt="string">2014-09-18T17:54:14Z</DateUtc></FrequencyChange></FrequencyChanges></Clock>\n,v4_BCL_bal_g-3-1,60.001,1.0.0.222,1,244965570,2.0.10.242,2.0.10.242,09-18-2014,9/18/2014 5:54:15 PM,13:54:15,2.0.10.147,84,,,,,,30,1,30,,,,1,,,g,,0.25,,,10.2,,,29.58,,,,,,TrialProc1,,,,vowel 1,vowel 2,1,179,415050,Block2,g1_f0_10_20_f2_29_58_dur_0_250_num_271.wav,,,,
v4_BCL_bal_g,3,1,<?xml version="1.0"?>\n<Clock xmlns:dt="urn:schemas-microsoft-com:datatypes"><Description dt:dt="string">E-Prime Primary Realtime Clock</Description><StartTime><Timestamp dt:dt="int">0</Timestamp><DateUtc dt:dt="string">2014-09-18T17:54:14Z</DateUtc></StartTime><FrequencyChanges><FrequencyChange><Frequency dt:dt="r8">2327530000</Frequency><Timestamp dt:dt="r8">23514719232662</Timestamp><Current dt:dt="r8">0</Current><DateUtc dt:dt="string">2014-09-18T17:54:14Z</DateUtc></FrequencyChange></FrequencyChanges></Clock>\n,v4_BCL_bal_g-3-1,60.001,1.0.0.222,1,244965570,2.0.10.242,2.0.10.242,09-18-2014,9/18/2014 5:54:15 PM,13:54:15,2.0.10.147,85,,,,,,31,1,31,,,,1,,,g,,0.248,,,10.67,,,29.95,,,,,,TrialProc1,,,,vowel 1,vowel 2,1,158,416029,Block2,g1_f0_10_67_f2_29_95_dur_0_248_num_239.wav,,,,
v4_BCL_bal_g,3,1,<?xml version="1.0"?>\n<Clock xmlns:dt="urn:schemas-microsoft-com:datatypes"><Description dt:dt="string">E-Prime Primary Realtime Clock</Description><StartTime><Timestamp dt:dt="int">0</Timestamp><DateUtc dt:dt="string">2014-09-18T17:54:14Z</DateUtc></StartTime><FrequencyChanges><FrequencyChange><Frequency dt:dt="r8">2327530000</Frequency><Timestamp dt:dt="r8">23514719232662</Timestamp><Current dt:dt="r8">0</Current><DateUtc dt:dt="string">2014-09-18T17:54:14Z</DateUtc></FrequencyChange></FrequencyChanges></Clock>\n,v4_BCL_bal_g-3-1,60.001,1.0.0.222,1,244965570,2.0.10.242,2.0.10.242,09-18-2014,9/18/2014 5:54:15 PM,13:54:15,2.0.10.147,86,,,,,,32,1,32,,,,1,,,g,,0.249,,,9.91,,,30.19,,,,,,TrialProc1,,,,vowel 1,vowel 2,1,162,416999,Block2,g1_f0_9_91_f2_30_19_dur_0_249_num_263.wav,,,,
v4_BCL_bal_g,3,1,<?xml version="1.0"?>\n<Clock xmlns:dt="urn:schemas-microsoft-com:datatypes"><Description dt:dt="string">E-Prime Primary Realtime Clock</Description><StartTime><Timestamp dt:dt="int">0</Timestamp><DateUtc dt:dt="string">2014-09-18T17:54:14Z</DateUtc></StartTime><FrequencyChanges><FrequencyChange><Frequency dt:dt="r8">2327530000</Frequency><Timestamp dt:dt="r8">23514719232662</Timestamp><Current dt:dt="r8">0</Current><DateUtc dt:dt="string">2014-09-18T17:54:14Z</DateUtc></FrequencyChange></FrequencyChanges></Clock>\n,v4_BCL_bal_g-3-1,60.001,1.0.0.222,1,244965570,2.0.10.242,2.0.10.242,09-18-2014,9/18/2014 5:54:15 PM,13:54:15,2.0.10.147,87,,,,,,33,1,33,,,,2,,,g,,0.25,,,9.11,,,29.43,,,,,,TrialProc1,,,,vowel 1,vowel 2,1,37,417841,Block2,g2_f0_9_11_f2_29_43_dur_0_250_num_537.wav,,,,
v4_BCL_bal_g,3,1,<?xml version="1.0"?>\n<Clock xmlns:dt="urn:schemas-microsoft-com:datatypes"><Description dt:dt="string">E-Prime Primary Realtime Clock</Description><StartTime><Timestamp dt:dt="int">0</Timestamp><DateUtc dt:dt="string">2014-09-18T17:54:14Z</DateUtc></StartTime><FrequencyChanges><FrequencyChange><Frequency dt:dt="r8">2327530000</Frequency><Timestamp dt:dt="r8">23514719232662</Timestamp><Current dt:dt="r8">0</Current><DateUtc dt:dt="string">2014-09-18T17:54:14Z</DateUtc></FrequencyChange></FrequencyChanges></Clock>\n,v4_BCL_bal_g-3-1,60.001,1.0.0.222,1,244965570,2.0.10.242,2.0.10.242,09-18-2014,9/18/2014 5:54:15 PM,13:54:15,2.0.10.147,88,,,,,,34,1,34,,,,1,,,g,,0.251,,,9.71,,,30.18,,,,,,TrialProc1,,,,vowel 1,vowel 2,1,111,418765,Block2,g1_f0_9_71_f2_30_18_dur_0_251_num_293.wav,,,,
v4_BCL_bal_g,3,1,<?xml version="1.0"?>\n<Clock xmlns:dt="urn:schemas-microsoft-com:datatypes"><Description dt:dt="string">E-Prime Primary Realtime Clock</Description><StartTime><Timestamp dt:dt="int">0</Timestamp><DateUtc dt:dt="string">2014-09-18T17:54:14Z</DateUtc></StartTime><FrequencyChanges><FrequencyChange><Frequency dt:dt="r8">2327530000</Frequency><Timestamp dt:dt="r8">23514719232662</Timestamp><Current dt:dt="r8">0</Current><DateUtc dt:dt="string">2014-09-18T17:54:14Z</DateUtc></FrequencyChange></FrequencyChanges></Clock>\n,v4_BCL_bal_g-3-1,60.001,1.0.0.222,1,244965570,2.0.10.242,2.0.10.242,09-18-2014,9/18/2014 5:54:15 PM,13:54:15,2.0.10.147,89,,,,,,35,1,35,,,,2,,,g,,0.251,,,7.66,,,30.39,,,,,,TrialProc1,,,,vowel 1,vowel 2,1,253,419824,Block2,g2_f0_7_66_f2_30_39_dur_0_251_num_558.wav,,,,
v4_BCL_bal_g,3,1,<?xml version="1.0"?>\n<Clock xmlns:dt="urn:schemas-microsoft-com:datatypes"><Description dt:dt="string">E-Prime Primary Realtime Clock</Description><StartTime><Timestamp dt:dt="int">0</Timestamp><DateUtc dt:dt="string">2014-09-18T17:54:14Z</DateUtc></StartTime><FrequencyChanges><FrequencyChange><Frequency dt:dt="r8">2327530000</Frequency><Timestamp dt:dt="r8">23514719232662</Timestamp><Current dt:dt="r8">0</Current><DateUtc dt:dt="string">2014-09-18T17:54:14Z</DateUtc></FrequencyChange></FrequencyChanges></Clock>\n,v4_BCL_bal_g-3-1,60.001,1.0.0.222,1,244965570,2.0.10.242,2.0.10.242,09-18-2014,9/18/2014 5:54:15 PM,13:54:15,2.0.10.147,90,,,,,,36,1,36,,,,2,,,g,,0.252,,,8.52,,,29.84,,,,,,TrialProc1,,,,vowel 1,vowel 2,1,268,420905,Block2,g2_f0_8_52_f2_29_84_dur_0_252_num_519.wav,,,,
v4_BCL_bal_g,3,1,<?xml version="1.0"?>\n<Clock xmlns:dt="urn:schemas-microsoft-com:datatypes"><Description dt:dt="string">E-Prime Primary Realtime Clock</Description><StartTime><Timestamp dt:dt="int">0</Timestamp><DateUtc dt:dt="string">2014-09-18T17:54:14Z</DateUtc></StartTime><FrequencyChanges><FrequencyChange><Frequency dt:dt="r8">2327530000</Frequency><Timestamp dt:dt="r8">23514719232662</Timestamp><Current dt:dt="r8">0</Current><DateUtc dt:dt="string">2014-09-18T17:54:14Z</DateUtc></FrequencyChange></FrequencyChanges></Clock>\n,v4_BCL_bal_g-3-1,60.001,1.0.0.222,1,244965570,2.0.10.242,2.0.10.242,09-18-2014,9/18/2014 5:54:15 PM,13:54:15,2.0.10.147,91,,,,,,37,1,37,,,,1,,,g,,0.254,,,9.59,,,31.19,,,,,,TrialProc1,,,,vowel 1,vowel 2,1,984,422705,Block2,g1_f0_9_59_f2_31_19_dur_0_254_num_243.wav,,,,
v4_BCL_bal_g,3,1,<?xml version="1.0"?>\n<Clock xmlns:dt="urn:schemas-microsoft-com:datatypes"><Description dt:dt="string">E-Prime Primary Realtime Clock</Description><StartTime><Timestamp dt:dt="int">0</Timestamp><DateUtc dt:dt="string">2014-09-18T17:54:14Z</DateUtc></StartTime><FrequencyChanges><FrequencyChange><Frequency dt:dt="r8">2327530000</Frequency><Timestamp dt:dt="r8">23514719232662</Timestamp><Current dt:dt="r8">0</Current><DateUtc dt:dt="string">2014-09-18T17:54:14Z</DateUtc></FrequencyChange></FrequencyChanges></Clock>\n,v4_BCL_bal_g-3-1,60.001,1.0.0.222,1,244965570,2.0.10.242,2.0.10.242,09-18-2014,9/18/2014 5:54:15 PM,13:54:15,2.0.10.147,92,,,,,,38,1,38,,,,2,,,g,,0.247,,,9.26,,,29.34,,,,,,TrialProc1,,,,vowel 1,vowel 2,1,320,423841,Block2,g2_f0_9_26_f2_29_34_dur_0_247_num_503.wav,,,,
v4_BCL_bal_g,3,1,<?xml version="1.0"?>\n<Clock xmlns:dt="urn:schemas-microsoft-com:datatypes"><Description dt:dt="string">E-Prime Primary Realtime Clock</Description><StartTime><Timestamp dt:dt="int">0</Timestamp><DateUtc dt:dt="string">2014-09-18T17:54:14Z</DateUtc></StartTime><FrequencyChanges><FrequencyChange><Frequency dt:dt="r8">2327530000</Frequency><Timestamp dt:dt="r8">23514719232662</Timestamp><Current dt:dt="r8">0</Current><DateUtc dt:dt="string">2014-09-18T17:54:14Z</DateUtc></FrequencyChange></FrequencyChanges></Clock>\n,v4_BCL_bal_g-3-1,60.001,1.0.0.222,1,244965570,2.0.10.242,2.0.10.242,09-18-2014,9/18/2014 5:54:15 PM,13:54:15,2.0.10.147,93,,,,,,39,1,39,,,,2,,,g,,0.248,,,8.18,,,29.74,,,,,,TrialProc1,,,,vowel 1,vowel 2,1,285,424939,Block2,g2_f0_8_18_f2_29_74_dur_0_248_num_527.wav,,,,
v4_BCL_bal_g,3,1,<?xml version="1.0"?>\n<Clock xmlns:dt="urn:schemas-microsoft-com:datatypes"><Description dt:dt="string">E-Prime Primary Realtime Clock</Description><StartTime><Timestamp dt:dt="int">0</Timestamp><DateUtc dt:dt="string">2014-09-18T17:54:14Z</DateUtc></StartTime><FrequencyChanges><FrequencyChange><Frequency dt:dt="r8">2327530000</Frequency><Timestamp dt:dt="r8">23514719232662</Timestamp><Current dt:dt="r8">0</Current><DateUtc dt:dt="string">2014-09-18T17:54:14Z</DateUtc></FrequencyChange></FrequencyChanges></Clock>\n,v4_BCL_bal_g-3-1,60.001,1.0.0.222,1,244965570,2.0.10.242,2.0.10.242,09-18-2014,9/18/2014 5:54:15 PM,13:54:15,2.0.10.147,94,,,,,,40,1,40,,,,2,,,g,,0.252,,,8.41,,,29.01,,,,,,TrialProc1,,,,vowel 1,vowel 2,1,183,425937,Block2,g2_f0_8_41_f2_29_01_dur_0_252_num_574.wav,,,,
v4_BCL_bal_g,3,1,<?xml version="1.0"?>\n<Clock xmlns:dt="urn:schemas-microsoft-com:datatypes"><Description dt:dt="string">E-Prime Primary Realtime Clock</Description><StartTime><Timestamp dt:dt="int">0</Timestamp><DateUtc dt:dt="string">2014-09-18T17:54:14Z</DateUtc></StartTime><FrequencyChanges><FrequencyChange><Frequency dt:dt="r8">2327530000</Frequency><Timestamp dt:dt="r8">23514719232662</Timestamp><Current dt:dt="r8">0</Current><DateUtc dt:dt="string">2014-09-18T17:54:14Z</DateUtc></FrequencyChange></FrequencyChanges></Clock>\n,v4_BCL_bal_g-3-1,60.001,1.0.0.222,1,244965570,2.0.10.242,2.0.10.242,09-18-2014,9/18/2014 5:54:15 PM,13:54:15,2.0.10.147,95,,,,,,41,1,41,,,,2,,,g,,0.251,,,7.79,,,29.72,,,,,,TrialProc1,,,,vowel 1,vowel 2,1,584,427338,Block2,g2_f0_7_79_f2_29_72_dur_0_251_num_501.wav,,,,
v4_BCL_bal_g,3,1,<?xml version="1.0"?>\n<Clock xmlns:dt="urn:schemas-microsoft-com:datatypes"><Description dt:dt="string">E-Prime Primary Realtime Clock</Description><StartTime><Timestamp dt:dt="int">0</Timestamp><DateUtc dt:dt="string">2014-09-18T17:54:14Z</DateUtc></StartTime><FrequencyChanges><FrequencyChange><Frequency dt:dt="r8">2327530000</Frequency><Timestamp dt:dt="r8">23514719232662</Timestamp><Current dt:dt="r8">0</Current><DateUtc dt:dt="string">2014-09-18T17:54:14Z</DateUtc></FrequencyChange></FrequencyChanges></Clock>\n,v4_BCL_bal_g-3-1,60.001,1.0.0.222,1,244965570,2.0.10.242,2.0.10.242,09-18-2014,9/18/2014 5:54:15 PM,13:54:15,2.0.10.147,96,,,,,,42,1,42,,,,2,,,g,,0.25,,,9.36,,,29.31,,,,,,TrialProc1,,,,vowel 1,vowel 2,1,223,428377,Block2,g2_f0_9_36_f2_29_31_dur_0_250_num_562.wav,,,,
v4_BCL_bal_g,3,1,<?xml version="1.0"?>\n<Clock xmlns:dt="urn:schemas-microsoft-com:datatypes"><Description dt:dt="string">E-Prime Primary Realtime Clock</Description><StartTime><Timestamp dt:dt="int">0</Timestamp><DateUtc dt:dt="string">2014-09-18T17:54:14Z</DateUtc></StartTime><FrequencyChanges><FrequencyChange><Frequency dt:dt="r8">2327530000</Frequency><Timestamp dt:dt="r8">23514719232662</Timestamp><Current dt:dt="r8">0</Current><DateUtc dt:dt="string">2014-09-18T17:54:14Z</DateUtc></FrequencyChange></FrequencyChanges></Clock>\n,v4_BCL_bal_g-3-1,60.001,1.0.0.222,1,244965570,2.0.10.242,2.0.10.242,09-18-2014,9/18/2014 5:54:15 PM,13:54:15,2.0.10.147,97,,,,,,43,1,43,,,,1,,,g,,0.255,,,9.38,,,30.74,,,,,,TrialProc1,,,,vowel 1,vowel 2,1,1294,430481,Block2,g1_f0_9_38_f2_30_74_dur_0_255_num_290.wav,,,,
v4_BCL_bal_g,3,1,<?xml version="1.0"?>\n<Clock xmlns:dt="urn:schemas-microsoft-com:datatypes"><Description dt:dt="string">E-Prime Primary Realtime Clock</Description><StartTime><Timestamp dt:dt="int">0</Timestamp><DateUtc dt:dt="string">2014-09-18T17:54:14Z</DateUtc></StartTime><FrequencyChanges><FrequencyChange><Frequency dt:dt="r8">2327530000</Frequency><Timestamp dt:dt="r8">23514719232662</Timestamp><Current dt:dt="r8">0</Current><DateUtc dt:dt="string">2014-09-18T17:54:14Z</DateUtc></FrequencyChange></FrequencyChanges></Clock>\n,v4_BCL_bal_g-3-1,60.001,1.0.0.222,1,244965570,2.0.10.242,2.0.10.242,09-18-2014,9/18/2014 5:54:15 PM,13:54:15,2.0.10.147,98,,,,,,44,1,44,,,,2,,,g,,0.245,,,9.14,,,29.22,,,,,,TrialProc1,,,,vowel 1,vowel 2,1,184,431471,Block2,g2_f0_9_14_f2_29_22_dur_0_245_num_524.wav,,,,
v4_BCL_bal_g,3,1,<?xml version="1.0"?>\n<Clock xmlns:dt="urn:schemas-microsoft-com:datatypes"><Description dt:dt="string">E-Prime Primary Realtime Clock</Description><StartTime><Timestamp dt:dt="int">0</Timestamp><DateUtc dt:dt="string">2014-09-18T17:54:14Z</DateUtc></StartTime><FrequencyChanges><FrequencyChange><Frequency dt:dt="r8">2327530000</Frequency><Timestamp dt:dt="r8">23514719232662</Timestamp><Current dt:dt="r8">0</Current><DateUtc dt:dt="string">2014-09-18T17:54:14Z</DateUtc></FrequencyChange></FrequencyChanges></Clock>\n,v4_BCL_bal_g-3-1,60.001,1.0.0.222,1,244965570,2.0.10.242,2.0.10.242,09-18-2014,9/18/2014 5:54:15 PM,13:54:15,2.0.10.147,99,,,,,,45,1,45,,,,1,,,g,,0.254,,,9.35,,,30.28,,,,,,TrialProc1,,,,vowel 1,vowel 2,1,254,432541,Block2,g1_f0_9_35_f2_30_28_dur_0_254_num_218.wav,,,,
v4_BCL_bal_g,3,1,<?xml version="1.0"?>\n<Clock xmlns:dt="urn:schemas-microsoft-com:datatypes"><Description dt:dt="string">E-Prime Primary Realtime Clock</Description><StartTime><Timestamp dt:dt="int">0</Timestamp><DateUtc dt:dt="string">2014-09-18T17:54:14Z</DateUtc></StartTime><FrequencyChanges><FrequencyChange><Frequency dt:dt="r8">2327530000</Frequency><Timestamp dt:dt="r8">23514719232662</Timestamp><Current dt:dt="r8">0</Current><DateUtc dt:dt="string">2014-09-18T17:54:14Z</DateUtc></FrequencyChange></FrequencyChanges></Clock>\n,v4_BCL_bal_g-3-1,60.001,1.0.0.222,1,244965570,2.0.10.242,2.0.10.242,09-18-2014,9/18/2014 5:54:15 PM,13:54:15,2.0.10.147,100,,,,,,46,1,46,,,,1,,,g,,0.249,,,9.08,,,31.14,,,,,,TrialProc1,,,,vowel 1,vowel 2,1,202,433556,Block2,g1_f0_9_08_f2_31_14_dur_0_249_num_266.wav,,,,
v4_BCL_bal_g,3,1,<?xml version="1.0"?>\n<Clock xmlns:dt="urn:schemas-microsoft-com:datatypes"><Description dt:dt="string">E-Prime Primary Realtime Clock</Description><StartTime><Timestamp dt:dt="int">0</Timestamp><DateUtc dt:dt="string">2014-09-18T17:54:14Z</DateUtc></StartTime><FrequencyChanges><FrequencyChange><Frequency dt:dt="r8">2327530000</Frequency><Timestamp dt:dt="r8">23514719232662</Timestamp><Current dt:dt="r8">0</Current><DateUtc dt:dt="string">2014-09-18T17:54:14Z</DateUtc></FrequencyChange></FrequencyChanges></Clock>\n,v4_BCL_bal_g-3-1,60.001,1.0.0.222,1,244965570,2.0.10.242,2.0.10.242,09-18-2014,9/18/2014 5:54:15 PM,13:54:15,2.0.10.147,101,,,,,,47,1,47,,,,2,,,g,,0.251,,,8.14,,,30.61,,,,,,TrialProc1,,,,vowel 1,vowel 2,1,265,434635,Block2,g2_f0_8_14_f2_30_61_dur_0_251_num_535.wav,,,,
v4_BCL_bal_g,3,1,<?xml version="1.0"?>\n<Clock xmlns:dt="urn:schemas-microsoft-com:datatypes"><Description dt:dt="string">E-Prime Primary Realtime Clock</Description><StartTime><Timestamp dt:dt="int">0</Timestamp><DateUtc dt:dt="string">2014-09-18T17:54:14Z</DateUtc></StartTime><FrequencyChanges><FrequencyChange><Frequency dt:dt="r8">2327530000</Frequency><Timestamp dt:dt="r8">23514719232662</Timestamp><Current dt:dt="r8">0</Current><DateUtc dt:dt="string">2014-09-18T17:54:14Z</DateUtc></FrequencyChange></FrequencyChanges></Clock>\n,v4_BCL_bal_g-3-1,60.001,1.0.0.222,1,244965570,2.0.10.242,2.0.10.242,09-18-2014,9/18/2014 5:54:15 PM,13:54:15,2.0.10.147,102,,,,,,48,1,48,,,,1,,,g,,0.25,,,9.38,,,30.97,,,,,,TrialProc1,,,,vowel 1,vowel 2,1,207,435677,Block2,g1_f0_9_38_f2_30_97_dur_0_250_num_228.wav,,,,
v4_BCL_bal_g,3,1,<?xml version="1.0"?>\n<Clock xmlns:dt="urn:schemas-microsoft-com:datatypes"><Description dt:dt="string">E-Prime Primary Realtime Clock</Description><StartTime><Timestamp dt:dt="int">0</Timestamp><DateUtc dt:dt="string">2014-09-18T17:54:14Z</DateUtc></StartTime><FrequencyChanges><FrequencyChange><Frequency dt:dt="r8">2327530000</Frequency><Timestamp dt:dt="r8">23514719232662</Timestamp><Current dt:dt="r8">0</Current><DateUtc dt:dt="string">2014-09-18T17:54:14Z</DateUtc></FrequencyChange></FrequencyChanges></Clock>\n,v4_BCL_bal_g-3-1,60.001,1.0.0.222,1,244965570,2.0.10.242,2.0.10.242,09-18-2014,9/18/2014 5:54:15 PM,13:54:15,2.0.10.147,103,,,,,,49,1,49,,,,2,,,g,,0.252,,,8.49,,,30.14,,,,,,TrialProc1,,,,vowel 1,vowel 2,1,237,436724,Block2,g2_f0_8_49_f2_30_14_dur_0_252_num_531.wav,,,,
v4_BCL_bal_g,3,1,<?xml version="1.0"?>\n<Clock xmlns:dt="urn:schemas-microsoft-com:datatypes"><Description dt:dt="string">E-Prime Primary Realtime Clock</Description><StartTime><Timestamp dt:dt="int">0</Timestamp><DateUtc dt:dt="string">2014-09-18T17:54:14Z</DateUtc></StartTime><FrequencyChanges><FrequencyChange><Frequency dt:dt="r8">2327530000</Frequency><Timestamp dt:dt="r8">23514719232662</Timestamp><Current dt:dt="r8">0</Current><DateUtc dt:dt="string">2014-09-18T17:54:14Z</DateUtc></FrequencyChange></FrequencyChanges></Clock>\n,v4_BCL_bal_g-3-1,60.001,1.0.0.222,1,244965570,2.0.10.242,2.0.10.242,09-18-2014,9/18/2014 5:54:15 PM,13:54:15,2.0.10.147,104,,,,,,50,1,50,,,,1,,,g,,0.251,,,9.03,,,31.6,,,,,,TrialProc1,,,,vowel 1,vowel 2,1,227,437764,Block2,g1_f0_9_03_f2_31_60_dur_0_251_num_269.wav,,,,
v4_BCL_bal_g,3,1,<?xml version="1.0"?>\n<Clock xmlns:dt="urn:schemas-microsoft-com:datatypes"><Description dt:dt="string">E-Prime Primary Realtime Clock</Description><StartTime><Timestamp dt:dt="int">0</Timestamp><DateUtc dt:dt="string">2014-09-18T17:54:14Z</DateUtc></StartTime><FrequencyChanges><FrequencyChange><Frequency dt:dt="r8">2327530000</Frequency><Timestamp dt:dt="r8">23514719232662</Timestamp><Current dt:dt="r8">0</Current><DateUtc dt:dt="string">2014-09-18T17:54:14Z</DateUtc></FrequencyChange></FrequencyChanges></Clock>\n,v4_BCL_bal_g-3-1,60.001,1.0.0.222,1,244965570,2.0.10.242,2.0.10.242,09-18-2014,9/18/2014 5:54:15 PM,13:54:15,2.0.10.147,105,,,,,,51,1,51,,,,2,,,g,,0.253,,,8.19,,,30.05,,,,,,TrialProc1,,,,vowel 1,vowel 2,1,183,438753,Block2,g2_f0_8_19_f2_30_05_dur_0_253_num_579.wav,,,,
v4_BCL_bal_g,3,1,<?xml version="1.0"?>\n<Clock xmlns:dt="urn:schemas-microsoft-com:datatypes"><Description dt:dt="string">E-Prime Primary Realtime Clock</Description><StartTime><Timestamp dt:dt="int">0</Timestamp><DateUtc dt:dt="string">2014-09-18T17:54:14Z</DateUtc></StartTime><FrequencyChanges><FrequencyChange><Frequency dt:dt="r8">2327530000</Frequency><Timestamp dt:dt="r8">23514719232662</Timestamp><Current dt:dt="r8">0</Current><DateUtc dt:dt="string">2014-09-18T17:54:14Z</DateUtc></FrequencyChange></FrequencyChanges></Clock>\n,v4_BCL_bal_g-3-1,60.001,1.0.0.222,1,244965570,2.0.10.242,2.0.10.242,09-18-2014,9/18/2014 5:54:15 PM,13:54:15,2.0.10.147,106,,,,,,52,1,52,,,,2,,,g,,0.254,,,8.44,,,29.08,,,,,,TrialProc1,,,,vowel 1,vowel 2,1,204,439774,Block2,g2_f0_8_44_f2_29_08_dur_0_254_num_530.wav,,,,
v4_BCL_bal_g,3,1,<?xml version="1.0"?>\n<Clock xmlns:dt="urn:schemas-microsoft-com:datatypes"><Description dt:dt="string">E-Prime Primary Realtime Clock</Description><StartTime><Timestamp dt:dt="int">0</Timestamp><DateUtc dt:dt="string">2014-09-18T17:54:14Z</DateUtc></StartTime><FrequencyChanges><FrequencyChange><Frequency dt:dt="r8">2327530000</Frequency><Timestamp dt:dt="r8">23514719232662</Timestamp><Current dt:dt="r8">0</Current><DateUtc dt:dt="string">2014-09-18T17:54:14Z</DateUtc></FrequencyChange></FrequencyChanges></Clock>\n,v4_BCL_bal_g-3-1,60.001,1.0.0.222,1,244965570,2.0.10.242,2.0.10.242,09-18-2014,9/18/2014 5:54:15 PM,13:54:15,2.0.10.147,107,,,,,,53,1,53,,,,2,,,g,,0.255,,,8.89,,,29.14,,,,,,TrialProc1,,,,vowel 1,vowel 2,1,921,441508,Block2,g2_f0_8_89_f2_29_14_dur_0_255_num_593.wav,,,,
v4_BCL_bal_g,3,1,<?xml version="1.0"?>\n<Clock xmlns:dt="urn:schemas-microsoft-com:datatypes"><Description dt:dt="string">E-Prime Primary Realtime Clock</Description><StartTime><Timestamp dt:dt="int">0</Timestamp><DateUtc dt:dt="string">2014-09-18T17:54:14Z</DateUtc></StartTime><FrequencyChanges><FrequencyChange><Frequency dt:dt="r8">2327530000</Frequency><Timestamp dt:dt="r8">23514719232662</Timestamp><Current dt:dt="r8">0</Current><DateUtc dt:dt="string">2014-09-18T17:54:14Z</DateUtc></FrequencyChange></FrequencyChanges></Clock>\n,v4_BCL_bal_g-3-1,60.001,1.0.0.222,1,244965570,2.0.10.242,2.0.10.242,09-18-2014,9/18/2014 5:54:15 PM,13:54:15,2.0.10.147,108,,,,,,54,1,54,,,,1,,,g,,0.256,,,9.32,,,30.66,,,,,,TrialProc1,,,,vowel 1,vowel 2,1,199,442519,Block2,g1_f0_9_32_f2_30_66_dur_0_256_num_220.wav,,,,
v4_BCL_bal_g,3,1,<?xml version="1.0"?>\n<Clock xmlns:dt="urn:schemas-microsoft-com:datatypes"><Description dt:dt="string">E-Prime Primary Realtime Clock</Description><StartTime><Timestamp dt:dt="int">0</Timestamp><DateUtc dt:dt="string">2014-09-18T17:54:14Z</DateUtc></StartTime><FrequencyChanges><FrequencyChange><Frequency dt:dt="r8">2327530000</Frequency><Timestamp dt:dt="r8">23514719232662</Timestamp><Current dt:dt="r8">0</Current><DateUtc dt:dt="string">2014-09-18T17:54:14Z</DateUtc></FrequencyChange></FrequencyChanges></Clock>\n,v4_BCL_bal_g-3-1,60.001,1.0.0.222,1,244965570,2.0.10.242,2.0.10.242,09-18-2014,9/18/2014 5:54:15 PM,13:54:15,2.0.10.147,109,,,,,,55,1,55,,,,2,,,g,,0.253,,,9.06,,,29.59,,,,,,TrialProc1,,,,vowel 1,vowel 2,1,190,443510,Block2,g2_f0_9_06_f2_29_59_dur_0_253_num_515.wav,,,,
v4_BCL_bal_g,3,1,<?xml version="1.0"?>\n<Clock xmlns:dt="urn:schemas-microsoft-com:datatypes"><Description dt:dt="string">E-Prime Primary Realtime Clock</Description><StartTime><Timestamp dt:dt="int">0</Timestamp><DateUtc dt:dt="string">2014-09-18T17:54:14Z</DateUtc></StartTime><FrequencyChanges><FrequencyChange><Frequency dt:dt="r8">2327530000</Frequency><Timestamp dt:dt="r8">23514719232662</Timestamp><Current dt:dt="r8">0</Current><DateUtc dt:dt="string">2014-09-18T17:54:14Z</DateUtc></FrequencyChange></FrequencyChanges></Clock>\n,v4_BCL_bal_g-3-1,60.001,1.0.0.222,1,244965570,2.0.10.242,2.0.10.242,09-18-2014,9/18/2014 5:54:15 PM,13:54:15,2.0.10.147,110,,,,,,56,1,56,,,,2,,,g,,0.25,,,8.58,,,29.31,,,,,,TrialProc1,,,,vowel 1,vowel 2,1,166,444486,Block2,g2_f0_8_58_f2_29_31_dur_0_250_num_522.wav,,,,
v4_BCL_bal_g,3,1,<?xml version="1.0"?>\n<Clock xmlns:dt="urn:schemas-microsoft-com:datatypes"><Description dt:dt="string">E-Prime Primary Realtime Clock</Description><StartTime><Timestamp dt:dt="int">0</Timestamp><DateUtc dt:dt="string">2014-09-18T17:54:14Z</DateUtc></StartTime><FrequencyChanges><FrequencyChange><Frequency dt:dt="r8">2327530000</Frequency><Timestamp dt:dt="r8">23514719232662</Timestamp><Current dt:dt="r8">0</Current><DateUtc dt:dt="string">2014-09-18T17:54:14Z</DateUtc></FrequencyChange></FrequencyChanges></Clock>\n,v4_BCL_bal_g-3-1,60.001,1.0.0.222,1,244965570,2.0.10.242,2.0.10.242,09-18-2014,9/18/2014 5:54:15 PM,13:54:15,2.0.10.147,111,,,,,,57,1,57,,,,1,,,g,,0.246,,,9.66,,,30.44,,,,,,TrialProc1,,,,vowel 1,vowel 2,1,275,445562,Block2,g1_f0_9_66_f2_30_44_dur_0_246_num_282.wav,,,,
v4_BCL_bal_g,3,1,<?xml version="1.0"?>\n<Clock xmlns:dt="urn:schemas-microsoft-com:datatypes"><Description dt:dt="string">E-Prime Primary Realtime Clock</Description><StartTime><Timestamp dt:dt="int">0</Timestamp><DateUtc dt:dt="string">2014-09-18T17:54:14Z</DateUtc></StartTime><FrequencyChanges><FrequencyChange><Frequency dt:dt="r8">2327530000</Frequency><Timestamp dt:dt="r8">23514719232662</Timestamp><Current dt:dt="r8">0</Current><DateUtc dt:dt="string">2014-09-18T17:54:14Z</DateUtc></FrequencyChange></FrequencyChanges></Clock>\n,v4_BCL_bal_g-3-1,60.001,1.0.0.222,1,244965570,2.0.10.242,2.0.10.242,09-18-2014,9/18/2014 5:54:15 PM,13:54:15,2.0.10.147,112,,,,,,58,1,58,,,,1,,,g,,0.252,,,9.32,,,31.21,,,,,,TrialProc1,,,,vowel 1,vowel 2,1,738,447125,Block2,g1_f0_9_32_f2_31_21_dur_0_252_num_295.wav,,,,
v4_BCL_bal_g,3,1,<?xml version="1.0"?>\n<Clock xmlns:dt="urn:schemas-microsoft-com:datatypes"><Description dt:dt="string">E-Prime Primary Realtime Clock</Description><StartTime><Timestamp dt:dt="int">0</Timestamp><DateUtc dt:dt="string">2014-09-18T17:54:14Z</DateUtc></StartTime><FrequencyChanges><FrequencyChange><Frequency dt:dt="r8">2327530000</Frequency><Timestamp dt:dt="r8">23514719232662</Timestamp><Current dt:dt="r8">0</Current><DateUtc dt:dt="string">2014-09-18T17:54:14Z</DateUtc></FrequencyChange></FrequencyChanges></Clock>\n,v4_BCL_bal_g-3-1,60.001,1.0.0.222,1,244965570,2.0.10.242,2.0.10.242,09-18-2014,9/18/2014 5:54:15 PM,13:54:15,2.0.10.147,113,,,,,,59,1,59,,,,2,,,g,,0.244,,,10.14,,,28.95,,,,,,TrialProc1,,,,vowel 1,vowel 2,2,828,448765,Block2,g2_f0_10_14_f2_28_95_dur_0_244_num_540.wav,,,,
v4_BCL_bal_g,3,1,<?xml version="1.0"?>\n<Clock xmlns:dt="urn:schemas-microsoft-com:datatypes"><Description dt:dt="string">E-Prime Primary Realtime Clock</Description><StartTime><Timestamp dt:dt="int">0</Timestamp><DateUtc dt:dt="string">2014-09-18T17:54:14Z</DateUtc></StartTime><FrequencyChanges><FrequencyChange><Frequency dt:dt="r8">2327530000</Frequency><Timestamp dt:dt="r8">23514719232662</Timestamp><Current dt:dt="r8">0</Current><DateUtc dt:dt="string">2014-09-18T17:54:14Z</DateUtc></FrequencyChange></FrequencyChanges></Clock>\n,v4_BCL_bal_g-3-1,60.001,1.0.0.222,1,244965570,2.0.10.242,2.0.10.242,09-18-2014,9/18/2014 5:54:15 PM,13:54:15,2.0.10.147,114,,,,,,60,1,60,,,,1,,,g,,0.251,,,9.94,,,30.18,,,,,,TrialProc1,,,,vowel 1,vowel 2,2,609,450196,Block2,g1_f0_9_94_f2_30_18_dur_0_251_num_234.wav,,,,
v4_BCL_bal_g,3,1,<?xml version="1.0"?>\n<Clock xmlns:dt="urn:schemas-microsoft-com:datatypes"><Description dt:dt="string">E-Prime Primary Realtime Clock</Description><StartTime><Timestamp dt:dt="int">0</Timestamp><DateUtc dt:dt="string">2014-09-18T17:54:14Z</DateUtc></StartTime><FrequencyChanges><FrequencyChange><Frequency dt:dt="r8">2327530000</Frequency><Timestamp dt:dt="r8">23514719232662</Timestamp><Current dt:dt="r8">0</Current><DateUtc dt:dt="string">2014-09-18T17:54:14Z</DateUtc></FrequencyChange></FrequencyChanges></Clock>\n,v4_BCL_bal_g-3-1,60.001,1.0.0.222,1,244965570,2.0.10.242,2.0.10.242,09-18-2014,9/18/2014 5:54:15 PM,13:54:15,2.0.10.147,115,,,,,,61,1,61,,,,1,,,g,,0.254,,,9.17,,,31.04,,,,,,TrialProc1,,,,vowel 1,vowel 2,1,815,451818,Block2,g1_f0_9_17_f2_31_04_dur_0_254_num_250.wav,,,,
v4_BCL_bal_g,3,1,<?xml version="1.0"?>\n<Clock xmlns:dt="urn:schemas-microsoft-com:datatypes"><Description dt:dt="string">E-Prime Primary Realtime Clock</Description><StartTime><Timestamp dt:dt="int">0</Timestamp><DateUtc dt:dt="string">2014-09-18T17:54:14Z</DateUtc></StartTime><FrequencyChanges><FrequencyChange><Frequency dt:dt="r8">2327530000</Frequency><Timestamp dt:dt="r8">23514719232662</Timestamp><Current dt:dt="r8">0</Current><DateUtc dt:dt="string">2014-09-18T17:54:14Z</DateUtc></FrequencyChange></FrequencyChanges></Clock>\n,v4_BCL_bal_g-3-1,60.001,1.0.0.222,1,244965570,2.0.10.242,2.0.10.242,09-18-2014,9/18/2014 5:54:15 PM,13:54:15,2.0.10.147,116,,,,,,62,1,62,,,,2,,,g,,0.244,,,8.75,,,28.75,,,,,,TrialProc1,,,,vowel 1,vowel 2,1,536,453173,Block2,g2_f0_8_75_f2_28_75_dur_0_244_num_514.wav,,,,
v4_BCL_bal_g,3,1,<?xml version="1.0"?>\n<Clock xmlns:dt="urn:schemas-microsoft-com:datatypes"><Description dt:dt="string">E-Prime Primary Realtime Clock</Description><StartTime><Timestamp dt:dt="int">0</Timestamp><DateUtc dt:dt="string">2014-09-18T17:54:14Z</DateUtc></StartTime><FrequencyChanges><FrequencyChange><Frequency dt:dt="r8">2327530000</Frequency><Timestamp dt:dt="r8">23514719232662</Timestamp><Current dt:dt="r8">0</Current><DateUtc dt:dt="string">2014-09-18T17:54:14Z</DateUtc></FrequencyChange></FrequencyChanges></Clock>\n,v4_BCL_bal_g-3-1,60.001,1.0.0.222,1,244965570,2.0.10.242,2.0.10.242,09-18-2014,9/18/2014 5:54:15 PM,13:54:15,2.0.10.147,117,,,,,,63,1,63,,,,1,,,g,,0.256,,,9.61,,,31.11,,,,,,TrialProc1,,,,vowel 1,vowel 2,1,415,454402,Block2,g1_f0_9_61_f2_31_11_dur_0_256_num_300.wav,,,,
v4_BCL_bal_g,3,1,<?xml version="1.0"?>\n<Clock xmlns:dt="urn:schemas-microsoft-com:datatypes"><Description dt:dt="string">E-Prime Primary Realtime Clock</Description><StartTime><Timestamp dt:dt="int">0</Timestamp><DateUtc dt:dt="string">2014-09-18T17:54:14Z</DateUtc></StartTime><FrequencyChanges><FrequencyChange><Frequency dt:dt="r8">2327530000</Frequency><Timestamp dt:dt="r8">23514719232662</Timestamp><Current dt:dt="r8">0</Current><DateUtc dt:dt="string">2014-09-18T17:54:14Z</DateUtc></FrequencyChange></FrequencyChanges></Clock>\n,v4_BCL_bal_g-3-1,60.001,1.0.0.222,1,244965570,2.0.10.242,2.0.10.242,09-18-2014,9/18/2014 5:54:15 PM,13:54:15,2.0.10.147,118,,,,,,64,1,64,,,,1,,,g,,0.248,,,9.16,,,30.75,,,,,,TrialProc1,,,,vowel 1,vowel 2,1,707,455927,Block2,g1_f0_9_16_f2_30_75_dur_0_248_num_267.wav,,,,
v4_BCL_bal_g,3,1,<?xml version="1.0"?>\n<Clock xmlns:dt="urn:schemas-microsoft-com:datatypes"><Description dt:dt="string">E-Prime Primary Realtime Clock</Description><StartTime><Timestamp dt:dt="int">0</Timestamp><DateUtc dt:dt="string">2014-09-18T17:54:14Z</DateUtc></StartTime><FrequencyChanges><FrequencyChange><Frequency dt:dt="r8">2327530000</Frequency><Timestamp dt:dt="r8">23514719232662</Timestamp><Current dt:dt="r8">0</Current><DateUtc dt:dt="string">2014-09-18T17:54:14Z</DateUtc></FrequencyChange></FrequencyChanges></Clock>\n,v4_BCL_bal_g-3-1,60.001,1.0.0.222,1,244965570,2.0.10.242,2.0.10.242,09-18-2014,9/18/2014 5:54:15 PM,13:54:15,2.0.10.147,119,,,,,,65,1,65,,,,1,,,g,,0.244,,,10.51,,,30.23,,,,,,TrialProc1,,,,vowel 1,vowel 2,2,659,457412,Block2,g1_f0_10_51_f2_30_23_dur_0_244_num_294.wav,,,,
v4_BCL_bal_g,3,1,<?xml version="1.0"?>\n<Clock xmlns:dt="urn:schemas-microsoft-com:datatypes"><Description dt:dt="string">E-Prime Primary Realtime Clock</Description><StartTime><Timestamp dt:dt="int">0</Timestamp><DateUtc dt:dt="string">2014-09-18T17:54:14Z</DateUtc></StartTime><FrequencyChanges><FrequencyChange><Frequency dt:dt="r8">2327530000</Frequency><Timestamp dt:dt="r8">23514719232662</Timestamp><Current dt:dt="r8">0</Current><DateUtc dt:dt="string">2014-09-18T17:54:14Z</DateUtc></FrequencyChange></FrequencyChanges></Clock>\n,v4_BCL_bal_g-3-1,60.001,1.0.0.222,1,244965570,2.0.10.242,2.0.10.242,09-18-2014,9/18/2014 5:54:15 PM,13:54:15,2.0.10.147,120,,,,,,66,1,66,,,,2,,,g,,0.247,,,7.56,,,30.36,,,,,,TrialProc1,,,,vowel 1,vowel 2,,0,0,Block2,g2_f0_7_56_f2_30_36_dur_0_247_num_502.wav,,,,
v4_BCL_bal_g,3,1,<?xml version="1.0"?>\n<Clock xmlns:dt="urn:schemas-microsoft-com:datatypes"><Description dt:dt="string">E-Prime Primary Realtime Clock</Description><StartTime><Timestamp dt:dt="int">0</Timestamp><DateUtc dt:dt="string">2014-09-18T17:54:14Z</DateUtc></StartTime><FrequencyChanges><FrequencyChange><Frequency dt:dt="r8">2327530000</Frequency><Timestamp dt:dt="r8">23514719232662</Timestamp><Current dt:dt="r8">0</Current><DateUtc dt:dt="string">2014-09-18T17:54:14Z</DateUtc></FrequencyChange></FrequencyChanges></Clock>\n,v4_BCL_bal_g-3-1,60.001,1.0.0.222,1,244965570,2.0.10.242,2.0.10.242,09-18-2014,9/18/2014 5:54:15 PM,13:54:15,2.0.10.147,121,,,,,,67,1,67,,,,2,,,g,,0.251,,,8.41,,,29.03,,,,,,TrialProc1,,,,vowel 1,vowel 2,1,49,460569,Block2,g2_f0_8_41_f2_29_03_dur_0_251_num_556.wav,,,,
v4_BCL_bal_g,3,1,<?xml version="1.0"?>\n<Clock xmlns:dt="urn:schemas-microsoft-com:datatypes"><Description dt:dt="string">E-Prime Primary Realtime Clock</Description><StartTime><Timestamp dt:dt="int">0</Timestamp><DateUtc dt:dt="string">2014-09-18T17:54:14Z</DateUtc></StartTime><FrequencyChanges><FrequencyChange><Frequency dt:dt="r8">2327530000</Frequency><Timestamp dt:dt="r8">23514719232662</Timestamp><Current dt:dt="r8">0</Current><DateUtc dt:dt="string">2014-09-18T17:54:14Z</DateUtc></FrequencyChange></FrequencyChanges></Clock>\n,v4_BCL_bal_g-3-1,60.001,1.0.0.222,1,244965570,2.0.10.242,2.0.10.242,09-18-2014,9/18/2014 5:54:15 PM,13:54:15,2.0.10.147,122,,,,,,68,1,68,,,,1,,,g,,0.245,,,9.77,,,30.38,,,,,,TrialProc1,,,,vowel 1,vowel 2,1,627,462013,Block2,g1_f0_9_77_f2_30_38_dur_0_245_num_249.wav,,,,
v4_BCL_bal_g,3,1,<?xml version="1.0"?>\n<Clock xmlns:dt="urn:schemas-microsoft-com:datatypes"><Description dt:dt="string">E-Prime Primary Realtime Clock</Description><StartTime><Timestamp dt:dt="int">0</Timestamp><DateUtc dt:dt="string">2014-09-18T17:54:14Z</DateUtc></StartTime><FrequencyChanges><FrequencyChange><Frequency dt:dt="r8">2327530000</Frequency><Timestamp dt:dt="r8">23514719232662</Timestamp><Current dt:dt="r8">0</Current><DateUtc dt:dt="string">2014-09-18T17:54:14Z</DateUtc></FrequencyChange></FrequencyChanges></Clock>\n,v4_BCL_bal_g-3-1,60.001,1.0.0.222,1,244965570,2.0.10.242,2.0.10.242,09-18-2014,9/18/2014 5:54:15 PM,13:54:15,2.0.10.147,123,,,,,,69,1,69,,,,1,,,g,,0.25,,,9.01,,,31.2,,,,,,TrialProc1,,,,vowel 1,vowel 2,1,846,463666,Block2,g1_f0_9_01_f2_31_20_dur_0_250_num_233.wav,,,,
v4_BCL_bal_g,3,1,<?xml version="1.0"?>\n<Clock xmlns:dt="urn:schemas-microsoft-com:datatypes"><Description dt:dt="string">E-Prime Primary Realtime Clock</Description><StartTime><Timestamp dt:dt="int">0</Timestamp><DateUtc dt:dt="string">2014-09-18T17:54:14Z</DateUtc></StartTime><FrequencyChanges><FrequencyChange><Frequency dt:dt="r8">2327530000</Frequency><Timestamp dt:dt="r8">23514719232662</Timestamp><Current dt:dt="r8">0</Current><DateUtc dt:dt="string">2014-09-18T17:54:14Z</DateUtc></FrequencyChange></FrequencyChanges></Clock>\n,v4_BCL_bal_g-3-1,60.001,1.0.0.222,1,244965570,2.0.10.242,2.0.10.242,09-18-2014,9/18/2014 5:54:15 PM,13:54:15,2.0.10.147,124,,,,,,70,1,70,,,,2,,,g,,0.248,,,8.46,,,29.68,,,,,,TrialProc1,,,,vowel 1,vowel 2,1,706,465176,Block2,g2_f0_8_46_f2_29_68_dur_0_248_num_552.wav,,,,
