ExperimentName,Subject,Session,Clock.Information,DataFile.Basename,Display.RefreshRate,ExperimentVersion,Group,RandomSeed,RuntimeVersion,RuntimeVersionExpected,SessionDate,SessionStartDateTimeUtc,SessionTime,StudioVersion,Block,A,B,Block1,Block1.Cycle,Block1.Sample,Block2,Block2.Cycle,Block2.Sample,Block3,Block3.Cycle,Block3.Sample,cat,catA,catB,cons,correct_resp,dur,durA,durB,f0,f0A,f0B,f2,f2A,f2B,PracticeList,PracticeList.Cycle,PracticeList.Sample,Procedure,resp.CRESP,resp.RESP,resp.RT,resp1,resp2,respond.RESP,respond.RT,respond.RTTime,Running,soundfile,testList,testList.Cycle,testList.Sample,X
v4_BCL_bal,10,1,<?xml version="1.0"?>\n<Clock xmlns:dt="urn:schemas-microsoft-com:datatypes"><Description dt:dt="string">E-Prime Primary Realtime Clock</Description><StartTime><Timestamp dt:dt="int">0</Timestamp><DateUtc dt:dt="string">2014-12-10T17:30:26Z</DateUtc></StartTime><FrequencyChanges><FrequencyChange><Frequency dt:dt="r8">2327530000</Frequency><Timestamp dt:dt="r8">1048467676746</Timestamp><Current dt:dt="r8">0</Current><DateUtc dt:dt="string">2014-12-10T17:30:26Z</DateUtc></FrequencyChange></FrequencyChanges></Clock>\n,v4_BCL_bal-10-1,60.001,1.0.0.222,1,951752358,2.0.10.242,2.0.10.242,12-10-2014,12/10/2014 5:30:27 PM,12:30:27,2.0.10.147,1,,,,,,,,,,,,NA,,,NA,,NA,,,NA,,,NA,,,6,1,1,PracProc,,,,vowel 1,vowel 2,,0,0,PracticeList,say.wav,,,,
v4_BCL_bal,10,1,<?xml version="1.0"?>\n<Clock xmlns:dt="urn:schemas-microsoft-com:datatypes"><Description dt:dt="string">E-Prime Primary Realtime Clock</Description><StartTime><Timestamp dt:dt="int">0</Timestamp><DateUtc dt:dt="string">2014-12-10T17:30:26Z</DateUtc></StartTime><FrequencyChanges><FrequencyChange><Frequency dt:dt="r8">2327530000</Frequency><Timestamp dt:dt="r8">1048467676746</Timestamp><Current dt:dt="r8">0</Current><DateUtc dt:dt="string">2014-12-10T17:30:26Z</DateUtc></FrequencyChange></FrequencyChanges></Clock>\n,v4_BCL_bal-10-1,60.001,1.0.0.222,1,951752358,2.0.10.242,2.0.10.242,12-10-2014,12/10/2014 5:30:27 PM,12:30:27,2.0.10.147,2,,,,,,,,,,,,NA,,,NA,,NA,,,NA,,,NA,,,3,1,2,PracProc,,,,vowel 1,vowel 2,1,834,137929,PracticeList,tea.wav,,,,
v4_BCL_bal,10,1,<?xml version="1.0"?>\n<Clock xmlns:dt="urn:schemas-microsoft-com:datatypes"><Description dt:dt="string">E-Prime Primary Realtime Clock</Description><StartTime><Timestamp dt:dt="int">0</Timestamp><DateUtc dt:dt="string">2014-12-10T17:30:26Z</DateUtc></StartTime><FrequencyChanges><FrequencyChange><Frequency dt:dt="r8">2327530000</Frequency><Timestamp dt:dt="r8">1048467676746</Timestamp><Current dt:dt="r8">0</Current><DateUtc dt:dt="string">2014-12-10T17:30:26Z</DateUtc></FrequencyChange></FrequencyChanges></Clock>\n,v4_BCL_bal-10-1,60.001,1.0.0.222,1,951752358,2.0.10.242,2.0.10.242,12-10-2014,12/10/2014 5:30:27 PM,12:30:27,2.0.10.147,3,,,,,,,,,,,,NA,,,NA,,NA,,,NA,,,NA,,,1,1,3,PracProc,,,,vowel 1,vowel 2,1,348,139193,PracticeList,key.wav,,,,
v4_BCL_bal,10,1,<?xml version="1.0"?>\n<Clock xmlns:dt="urn:schemas-microsoft-com:datatypes"><Description dt:dt="string">E-Prime Primary Realtime Clock</Description><StartTime><Timestamp dt:dt="int">0</Timestamp><DateUtc dt:dt="string">2014-12-10T17:30:26Z</DateUtc></StartTime><FrequencyChanges><FrequencyChange><Frequency dt:dt="r8">2327530000</Frequency><Timestamp dt:dt="r8">1048467676746</Timestamp><Current dt:dt="r8">0</Current><DateUtc dt:dt="string">2014-12-10T17:30:26Z</DateUtc></FrequencyChange></FrequencyChanges></Clock>\n,v4_BCL_bal-10-1,60.001,1.0.0.222,1,951752358,2.0.10.242,2.0.10.242,12-10-2014,12/10/2014 5:30:27 PM,12:30:27,2.0.10.147,4,,,,,,,,,,,,NA,,,NA,,NA,,,NA,,,NA,,,2,1,4,PracProc,,,,vowel 1,vowel 2,1,414,140525,PracticeList,kay.wav,,,,
v4_BCL_bal,10,1,<?xml version="1.0"?>\n<Clock xmlns:dt="urn:schemas-microsoft-com:datatypes"><Description dt:dt="string">E-Prime Primary Realtime Clock</Description><StartTime><Timestamp dt:dt="int">0</Timestamp><DateUtc dt:dt="string">2014-12-10T17:30:26Z</DateUtc></StartTime><FrequencyChanges><FrequencyChange><Frequency dt:dt="r8">2327530000</Frequency><Timestamp dt:dt="r8">1048467676746</Timestamp><Current dt:dt="r8">0</Current><DateUtc dt:dt="string">2014-12-10T17:30:26Z</DateUtc></FrequencyChange></FrequencyChanges></Clock>\n,v4_BCL_bal-10-1,60.001,1.0.0.222,1,951752358,2.0.10.242,2.0.10.242,12-10-2014,12/10/2014 5:30:27 PM,12:30:27,2.0.10.147,5,,,,,,,,,,,,NA,,,NA,,NA,,,NA,,,NA,,,5,1,5,PracProc,,,,vowel 1,vowel 2,1,708,142136,PracticeList,see.wav,,,,
v4_BCL_bal,10,1,<?xml version="1.0"?>\n<Clock xmlns:dt="urn:schemas-microsoft-com:datatypes"><Description dt:dt="string">E-Prime Primary Realtime Clock</Description><StartTime><Timestamp dt:dt="int">0</Timestamp><DateUtc dt:dt="string">2014-12-10T17:30:26Z</DateUtc></StartTime><FrequencyChanges><FrequencyChange><Frequency dt:dt="r8">2327530000</Frequency><Timestamp dt:dt="r8">1048467676746</Timestamp><Current dt:dt="r8">0</Current><DateUtc dt:dt="string">2014-12-10T17:30:26Z</DateUtc></FrequencyChange></FrequencyChanges></Clock>\n,v4_BCL_bal-10-1,60.001,1.0.0.222,1,951752358,2.0.10.242,2.0.10.242,12-10-2014,12/10/2014 5:30:27 PM,12:30:27,2.0.10.147,6,,,,,,,,,,,,NA,,,NA,,NA,,,NA,,,NA,,,4,1,6,PracProc,,,,vowel 1,vowel 2,,0,0,PracticeList,tay.wav,,,,
v4_BCL_bal,10,1,<?xml version="1.0"?>\n<Clock xmlns:dt="urn:schemas-microsoft-com:datatypes"><Description dt:dt="string">E-Prime Primary Realtime Clock</Description><StartTime><Timestamp dt:dt="int">0</Timestamp><DateUtc dt:dt="string">2014-12-10T17:30:26Z</DateUtc></StartTime><FrequencyChanges><FrequencyChange><Frequency dt:dt="r8">2327530000</Frequency><Timestamp dt:dt="r8">1048467676746</Timestamp><Current dt:dt="r8">0</Current><DateUtc dt:dt="string">2014-12-10T17:30:26Z</DateUtc></FrequencyChange></FrequencyChanges></Clock>\n,v4_BCL_bal-10-1,60.001,1.0.0.222,1,951752358,2.0.10.242,2.0.10.242,12-10-2014,12/10/2014 5:30:27 PM,12:30:27,2.0.10.147,7,,,,,,,,,,,,NA,,,NA,,NA,,,NA,,,NA,,,3,2,7,PracProc,,,,vowel 1,vowel 2,,0,0,PracticeList,tea.wav,,,,
v4_BCL_bal,10,1,<?xml version="1.0"?>\n<Clock xmlns:dt="urn:schemas-microsoft-com:datatypes"><Description dt:dt="string">E-Prime Primary Realtime Clock</Description><StartTime><Timestamp dt:dt="int">0</Timestamp><DateUtc dt:dt="string">2014-12-10T17:30:26Z</DateUtc></StartTime><FrequencyChanges><FrequencyChange><Frequency dt:dt="r8">2327530000</Frequency><Timestamp dt:dt="r8">1048467676746</Timestamp><Current dt:dt="r8">0</Current><DateUtc dt:dt="string">2014-12-10T17:30:26Z</DateUtc></FrequencyChange></FrequencyChanges></Clock>\n,v4_BCL_bal-10-1,60.001,1.0.0.222,1,951752358,2.0.10.242,2.0.10.242,12-10-2014,12/10/2014 5:30:27 PM,12:30:27,2.0.10.147,8,,,,,,,,,,,,NA,,,NA,,NA,,,NA,,,NA,,,1,2,8,PracProc,,,,vowel 1,vowel 2,,0,0,PracticeList,key.wav,,,,
v4_BCL_bal,10,1,<?xml version="1.0"?>\n<Clock xmlns:dt="urn:schemas-microsoft-com:datatypes"><Description dt:dt="string">E-Prime Primary Realtime Clock</Description><StartTime><Timestamp dt:dt="int">0</Timestamp><DateUtc dt:dt="string">2014-12-10T17:30:26Z</DateUtc></StartTime><FrequencyChanges><FrequencyChange><Frequency dt:dt="r8">2327530000</Frequency><Timestamp dt:dt="r8">1048467676746</Timestamp><Current dt:dt="r8">0</Current><DateUtc dt:dt="string">2014-12-10T17:30:26Z</DateUtc></FrequencyChange></FrequencyChanges></Clock>\n,v4_BCL_bal-10-1,60.001,1.0.0.222,1,951752358,2.0.10.242,2.0.10.242,12-10-2014,12/10/2014 5:30:27 PM,12:30:27,2.0.10.147,9,,,,,,,,,,,,NA,,,NA,,NA,,,NA,,,NA,,,6,2,9,PracProc,,,,vowel 1,vowel 2,,0,0,PracticeList,say.wav,,,,
v4_BCL_bal,10,1,<?xml version="1.0"?>\n<Clock xmlns:dt="urn:schemas-microsoft-com:datatypes"><Description dt:dt="string">E-Prime Primary Realtime Clock</Description><StartTime><Timestamp dt:dt="int">0</Timestamp><DateUtc dt:dt="string">2014-12-10T17:30:26Z</DateUtc></StartTime><FrequencyChanges><FrequencyChange><Frequency dt:dt="r8">2327530000</Frequency><Timestamp dt:dt="r8">1048467676746</Timestamp><Current dt:dt="r8">0</Current><DateUtc dt:dt="string">2014-12-10T17:30:26Z</DateUtc></FrequencyChange></FrequencyChanges></Clock>\n,v4_BCL_bal-10-1,60.001,1.0.0.222,1,951752358,2.0.10.242,2.0.10.242,12-10-2014,12/10/2014 5:30:27 PM,12:30:27,2.0.10.147,10,,,,,,,,,,,,NA,,,NA,,NA,,,NA,,,NA,,,2,2,10,PracProc,,,,vowel 1,vowel 2,,0,0,PracticeList,kay.wav,,,,
v4_BCL_bal,10,1,<?xml version="1.0"?>\n<Clock xmlns:dt="urn:schemas-microsoft-com:datatypes"><Description dt:dt="string">E-Prime Primary Realtime Clock</Description><StartTime><Timestamp dt:dt="int">0</Timestamp><DateUtc dt:dt="string">2014-12-10T17:30:26Z</DateUtc></StartTime><FrequencyChanges><FrequencyChange><Frequency dt:dt="r8">2327530000</Frequency><Timestamp dt:dt="r8">1048467676746</Timestamp><Current dt:dt="r8">0</Current><DateUtc dt:dt="string">2014-12-10T17:30:26Z</DateUtc></FrequencyChange></FrequencyChanges></Clock>\n,v4_BCL_bal-10-1,60.001,1.0.0.222,1,951752358,2.0.10.242,2.0.10.242,12-10-2014,12/10/2014 5:30:27 PM,12:30:27,2.0.10.147,11,,,,,,,,,,,,NA,,,NA,,NA,,,NA,,,NA,,,5,2,11,PracProc,,,,vowel 1,vowel 2,,0,0,PracticeList,see.wav,,,,
v4_BCL_bal,10,1,<?xml version="1.0"?>\n<Clock xmlns:dt="urn:schemas-microsoft-com:datatypes"><Description dt:dt="string">E-Prime Primary Realtime Clock</Description><StartTime><Timestamp dt:dt="int">0</Timestamp><DateUtc dt:dt="string">2014-12-10T17:30:26Z</DateUtc></StartTime><FrequencyChanges><FrequencyChange><Frequency dt:dt="r8">2327530000</Frequency><Timestamp dt:dt="r8">1048467676746</Timestamp><Current dt:dt="r8">0</Current><DateUtc dt:dt="string">2014-12-10T17:30:26Z</DateUtc></FrequencyChange></FrequencyChanges></Clock>\n,v4_BCL_bal-10-1,60.001,1.0.0.222,1,951752358,2.0.10.242,2.0.10.242,12-10-2014,12/10/2014 5:30:27 PM,12:30:27,2.0.10.147,12,,,,,,,,,,,,NA,,,NA,,NA,,,NA,,,NA,,,4,2,12,PracProc,,,,vowel 1,vowel 2,,0,0,PracticeList,tay.wav,,,,
v4_BCL_bal,10,1,<?xml version="1.0"?>\n<Clock xmlns:dt="urn:schemas-microsoft-com:datatypes"><Description dt:dt="string">E-Prime Primary Realtime Clock</Description><StartTime><Timestamp dt:dt="int">0</Timestamp><DateUtc dt:dt="string">2014-12-10T17:30:26Z</DateUtc></StartTime><FrequencyChanges><FrequencyChange><Frequency dt:dt="r8">2327530000</Frequency><Timestamp dt:dt="r8">1048467676746</Timestamp><Current dt:dt="r8">0</Current><DateUtc dt:dt="string">2014-12-10T17:30:26Z</DateUtc></FrequencyChange></FrequencyChanges></Clock>\n,v4_BCL_bal-10-1,60.001,1.0.0.222,1,951752358,2.0.10.242,2.0.10.242,12-10-2014,12/10/2014 5:30:27 PM,12:30:27,2.0.10.147,13,,,,,,,,,,,,NA,,,NA,,NA,,,NA,,,NA,,,2,3,13,PracProc,,,,vowel 1,vowel 2,,0,0,PracticeList,kay.wav,,,,
v4_BCL_bal,10,1,<?xml version="1.0"?>\n<Clock xmlns:dt="urn:schemas-microsoft-com:datatypes"><Description dt:dt="string">E-Prime Primary Realtime Clock</Description><StartTime><Timestamp dt:dt="int">0</Timestamp><DateUtc dt:dt="string">2014-12-10T17:30:26Z</DateUtc></StartTime><FrequencyChanges><FrequencyChange><Frequency dt:dt="r8">2327530000</Frequency><Timestamp dt:dt="r8">1048467676746</Timestamp><Current dt:dt="r8">0</Current><DateUtc dt:dt="string">2014-12-10T17:30:26Z</DateUtc></FrequencyChange></FrequencyChanges></Clock>\n,v4_BCL_bal-10-1,60.001,1.0.0.222,1,951752358,2.0.10.242,2.0.10.242,12-10-2014,12/10/2014 5:30:27 PM,12:30:27,2.0.10.147,14,,,,,,,,,,,,NA,,,NA,,NA,,,NA,,,NA,,,5,3,14,PracProc,,,,vowel 1,vowel 2,,0,0,PracticeList,see.wav,,,,
v4_BCL_bal,10,1,<?xml version="1.0"?>\n<Clock xmlns:dt="urn:schemas-microsoft-com:datatypes"><Description dt:dt="string">E-Prime Primary Realtime Clock</Description><StartTime><Timestamp dt:dt="int">0</Timestamp><DateUtc dt:dt="string">2014-12-10T17:30:26Z</DateUtc></StartTime><FrequencyChanges><FrequencyChange><Frequency dt:dt="r8">2327530000</Frequency><Timestamp dt:dt="r8">1048467676746</Timestamp><Current dt:dt="r8">0</Current><DateUtc dt:dt="string">2014-12-10T17:30:26Z</DateUtc></FrequencyChange></FrequencyChanges></Clock>\n,v4_BCL_bal-10-1,60.001,1.0.0.222,1,951752358,2.0.10.242,2.0.10.242,12-10-2014,12/10/2014 5:30:27 PM,12:30:27,2.0.10.147,15,,,,,,,,,,,,NA,,,NA,,NA,,,NA,,,NA,,,6,3,15,PracProc,,,,vowel 1,vowel 2,,0,0,PracticeList,say.wav,,,,
v4_BCL_bal,10,1,<?xml version="1.0"?>\n<Clock xmlns:dt="urn:schemas-microsoft-com:datatypes"><Description dt:dt="string">E-Prime Primary Realtime Clock</Description><StartTime><Timestamp dt:dt="int">0</Timestamp><DateUtc dt:dt="string">2014-12-10T17:30:26Z</DateUtc></StartTime><FrequencyChanges><FrequencyChange><Frequency dt:dt="r8">2327530000</Frequency><Timestamp dt:dt="r8">1048467676746</Timestamp><Current dt:dt="r8">0</Current><DateUtc dt:dt="string">2014-12-10T17:30:26Z</DateUtc></FrequencyChange></FrequencyChanges></Clock>\n,v4_BCL_bal-10-1,60.001,1.0.0.222,1,951752358,2.0.10.242,2.0.10.242,12-10-2014,12/10/2014 5:30:27 PM,12:30:27,2.0.10.147,16,,,,,,,,,,,,NA,,,NA,,NA,,,NA,,,NA,,,1,3,16,PracProc,,,,vowel 1,vowel 2,,0,0,PracticeList,key.wav,,,,
v4_BCL_bal,10,1,<?xml version="1.0"?>\n<Clock xmlns:dt="urn:schemas-microsoft-com:datatypes"><Description dt:dt="string">E-Prime Primary Realtime Clock</Description><StartTime><Timestamp dt:dt="int">0</Timestamp><DateUtc dt:dt="string">2014-12-10T17:30:26Z</DateUtc></StartTime><FrequencyChanges><FrequencyChange><Frequency dt:dt="r8">2327530000</Frequency><Timestamp dt:dt="r8">1048467676746</Timestamp><Current dt:dt="r8">0</Current><DateUtc dt:dt="string">2014-12-10T17:30:26Z</DateUtc></FrequencyChange></FrequencyChanges></Clock>\n,v4_BCL_bal-10-1,60.001,1.0.0.222,1,951752358,2.0.10.242,2.0.10.242,12-10-2014,12/10/2014 5:30:27 PM,12:30:27,2.0.10.147,17,,,,,,,,,,,,NA,,,NA,,NA,,,NA,,,NA,,,3,3,17,PracProc,,,,vowel 1,vowel 2,,0,0,PracticeList,tea.wav,,,,
v4_BCL_bal,10,1,<?xml version="1.0"?>\n<Clock xmlns:dt="urn:schemas-microsoft-com:datatypes"><Description dt:dt="string">E-Prime Primary Realtime Clock</Description><StartTime><Timestamp dt:dt="int">0</Timestamp><DateUtc dt:dt="string">2014-12-10T17:30:26Z</DateUtc></StartTime><FrequencyChanges><FrequencyChange><Frequency dt:dt="r8">2327530000</Frequency><Timestamp dt:dt="r8">1048467676746</Timestamp><Current dt:dt="r8">0</Current><DateUtc dt:dt="string">2014-12-10T17:30:26Z</DateUtc></FrequencyChange></FrequencyChanges></Clock>\n,v4_BCL_bal-10-1,60.001,1.0.0.222,1,951752358,2.0.10.242,2.0.10.242,12-10-2014,12/10/2014 5:30:27 PM,12:30:27,2.0.10.147,18,,,,,,,,,,,,NA,,,NA,,NA,,,NA,,,NA,,,4,3,18,PracProc,,,,vowel 1,vowel 2,,0,0,PracticeList,tay.wav,,,,
v4_BCL_bal,10,1,<?xml version="1.0"?>\n<Clock xmlns:dt="urn:schemas-microsoft-com:datatypes"><Description dt:dt="string">E-Prime Primary Realtime Clock</Description><StartTime><Timestamp dt:dt="int">0</Timestamp><DateUtc dt:dt="string">2014-12-10T17:30:26Z</DateUtc></StartTime><FrequencyChanges><FrequencyChange><Frequency dt:dt="r8">2327530000</Frequency><Timestamp dt:dt="r8">1048467676746</Timestamp><Current dt:dt="r8">0</Current><DateUtc dt:dt="string">2014-12-10T17:30:26Z</DateUtc></FrequencyChange></FrequencyChanges></Clock>\n,v4_BCL_bal-10-1,60.001,1.0.0.222,1,951752358,2.0.10.242,2.0.10.242,12-10-2014,12/10/2014 5:30:27 PM,12:30:27,2.0.10.147,19,,,5,1,1,,,,,,,1,,,b,,0.251,,,10.34,,,29.71,,,,,,ExposureProc,,,,vowel 1,vowel 2,,,,Block1,b1_f0_10_34_f2_29_71_dur_0_251_num_49.wav,,,,
v4_BCL_bal,10,1,<?xml version="1.0"?>\n<Clock xmlns:dt="urn:schemas-microsoft-com:datatypes"><Description dt:dt="string">E-Prime Primary Realtime Clock</Description><StartTime><Timestamp dt:dt="int">0</Timestamp><DateUtc dt:dt="string">2014-12-10T17:30:26Z</DateUtc></StartTime><FrequencyChanges><FrequencyChange><Frequency dt:dt="r8">2327530000</Frequency><Timestamp dt:dt="r8">1048467676746</Timestamp><Current dt:dt="r8">0</Current><DateUtc dt:dt="string">2014-12-10T17:30:26Z</DateUtc></FrequencyChange></FrequencyChanges></Clock>\n,v4_BCL_bal-10-1,60.001,1.0.0.222,1,951752358,2.0.10.242,2.0.10.242,12-10-2014,12/10/2014 5:30:27 PM,12:30:27,2.0.10.147,20,,,1,1,2,,,,,,,2,,,b,,0.252,,,8.56,,,29.37,,,,,,ExposureProc,,,,Vowel 1,Vowel 2,,,,Block1,b2_f0_8_56_f2_29_37_dur_0_252_num_346.wav,,,,
v4_BCL_bal,10,1,<?xml version="1.0"?>\n<Clock xmlns:dt="urn:schemas-microsoft-com:datatypes"><Description dt:dt="string">E-Prime Primary Realtime Clock</Description><StartTime><Timestamp dt:dt="int">0</Timestamp><DateUtc dt:dt="string">2014-12-10T17:30:26Z</DateUtc></StartTime><FrequencyChanges><FrequencyChange><Frequency dt:dt="r8">2327530000</Frequency><Timestamp dt:dt="r8">1048467676746</Timestamp><Current dt:dt="r8">0</Current><DateUtc dt:dt="string">2014-12-10T17:30:26Z</DateUtc></FrequencyChange></FrequencyChanges></Clock>\n,v4_BCL_bal-10-1,60.001,1.0.0.222,1,951752358,2.0.10.242,2.0.10.242,12-10-2014,12/10/2014 5:30:27 PM,12:30:27,2.0.10.147,21,,,31,1,3,,,,,,,1,,,g,,0.248,,,9.49,,,30.67,,,,,,ExposureProc,,,,vowel 1,vowel 2,,,,Block1,g1_f0_9_49_f2_30_67_dur_0_248_num_276.wav,,,,
v4_BCL_bal,10,1,<?xml version="1.0"?>\n<Clock xmlns:dt="urn:schemas-microsoft-com:datatypes"><Description dt:dt="string">E-Prime Primary Realtime Clock</Description><StartTime><Timestamp dt:dt="int">0</Timestamp><DateUtc dt:dt="string">2014-12-10T17:30:26Z</DateUtc></StartTime><FrequencyChanges><FrequencyChange><Frequency dt:dt="r8">2327530000</Frequency><Timestamp dt:dt="r8">1048467676746</Timestamp><Current dt:dt="r8">0</Current><DateUtc dt:dt="string">2014-12-10T17:30:26Z</DateUtc></FrequencyChange></FrequencyChanges></Clock>\n,v4_BCL_bal-10-1,60.001,1.0.0.222,1,951752358,2.0.10.242,2.0.10.242,12-10-2014,12/10/2014 5:30:27 PM,12:30:27,2.0.10.147,22,,,7,1,4,,,,,,,1,,,b,,0.253,,,9.88,,,30.22,,,,,,ExposureProc,,,,vowel 1,vowel 2,,,,Block1,b1_f0_9_88_f2_30_22_dur_0_253_num_52.wav,,,,
v4_BCL_bal,10,1,<?xml version="1.0"?>\n<Clock xmlns:dt="urn:schemas-microsoft-com:datatypes"><Description dt:dt="string">E-Prime Primary Realtime Clock</Description><StartTime><Timestamp dt:dt="int">0</Timestamp><DateUtc dt:dt="string">2014-12-10T17:30:26Z</DateUtc></StartTime><FrequencyChanges><FrequencyChange><Frequency dt:dt="r8">2327530000</Frequency><Timestamp dt:dt="r8">1048467676746</Timestamp><Current dt:dt="r8">0</Current><DateUtc dt:dt="string">2014-12-10T17:30:26Z</DateUtc></FrequencyChange></FrequencyChanges></Clock>\n,v4_BCL_bal-10-1,60.001,1.0.0.222,1,951752358,2.0.10.242,2.0.10.242,12-10-2014,12/10/2014 5:30:27 PM,12:30:27,2.0.10.147,23,,,34,1,5,,,,,,,2,,,g,,0.25,,,8.41,,,29.83,,,,,,ExposureProc,,,,vowel 1,vowel 2,,,,Block1,g2_f0_8_41_f2_29_83_dur_0_250_num_505.wav,,,,
v4_BCL_bal,10,1,<?xml version="1.0"?>\n<Clock xmlns:dt="urn:schemas-microsoft-com:datatypes"><Description dt:dt="string">E-Prime Primary Realtime Clock</Description><StartTime><Timestamp dt:dt="int">0</Timestamp><DateUtc dt:dt="string">2014-12-10T17:30:26Z</DateUtc></StartTime><FrequencyChanges><FrequencyChange><Frequency dt:dt="r8">2327530000</Frequency><Timestamp dt:dt="r8">1048467676746</Timestamp><Current dt:dt="r8">0</Current><DateUtc dt:dt="string">2014-12-10T17:30:26Z</DateUtc></FrequencyChange></FrequencyChanges></Clock>\n,v4_BCL_bal-10-1,60.001,1.0.0.222,1,951752358,2.0.10.242,2.0.10.242,12-10-2014,12/10/2014 5:30:27 PM,12:30:27,2.0.10.147,24,,,32,1,6,,,,,,,2,,,g,,0.251,,,8.34,,,30.25,,,,,,ExposureProc,,,,vowel 1,vowel 2,,,,Block1,g2_f0_8_34_f2_30_25_dur_0_251_num_599.wav,,,,
v4_BCL_bal,10,1,<?xml version="1.0"?>\n<Clock xmlns:dt="urn:schemas-microsoft-com:datatypes"><Description dt:dt="string">E-Prime Primary Realtime Clock</Description><StartTime><Timestamp dt:dt="int">0</Timestamp><DateUtc dt:dt="string">2014-12-10T17:30:26Z</DateUtc></StartTime><FrequencyChanges><FrequencyChange><Frequency dt:dt="r8">2327530000</Frequency><Timestamp dt:dt="r8">1048467676746</Timestamp><Current dt:dt="r8">0</Current><DateUtc dt:dt="string">2014-12-10T17:30:26Z</DateUtc></FrequencyChange></FrequencyChanges></Clock>\n,v4_BCL_bal-10-1,60.001,1.0.0.222,1,951752358,2.0.10.242,2.0.10.242,12-10-2014,12/10/2014 5:30:27 PM,12:30:27,2.0.10.147,25,,,23,1,7,,,,,,,2,,,d,,0.251,,,8.23,,,30.53,,,,,,ExposureProc,,,,vowel 1,vowel 2,,,,Block1,d2_f0_8_23_f2_30_53_dur_0_251_num_464.wav,,,,
v4_BCL_bal,10,1,<?xml version="1.0"?>\n<Clock xmlns:dt="urn:schemas-microsoft-com:datatypes"><Description dt:dt="string">E-Prime Primary Realtime Clock</Description><StartTime><Timestamp dt:dt="int">0</Timestamp><DateUtc dt:dt="string">2014-12-10T17:30:26Z</DateUtc></StartTime><FrequencyChanges><FrequencyChange><Frequency dt:dt="r8">2327530000</Frequency><Timestamp dt:dt="r8">1048467676746</Timestamp><Current dt:dt="r8">0</Current><DateUtc dt:dt="string">2014-12-10T17:30:26Z</DateUtc></FrequencyChange></FrequencyChanges></Clock>\n,v4_BCL_bal-10-1,60.001,1.0.0.222,1,951752358,2.0.10.242,2.0.10.242,12-10-2014,12/10/2014 5:30:27 PM,12:30:27,2.0.10.147,26,,,26,1,8,,,,,,,1,,,g,,0.25,,,9.2,,,30.98,,,,,,ExposureProc,,,,vowel 1,vowel 2,,,,Block1,g1_f0_9_20_f2_30_98_dur_0_250_num_224.wav,,,,
v4_BCL_bal,10,1,<?xml version="1.0"?>\n<Clock xmlns:dt="urn:schemas-microsoft-com:datatypes"><Description dt:dt="string">E-Prime Primary Realtime Clock</Description><StartTime><Timestamp dt:dt="int">0</Timestamp><DateUtc dt:dt="string">2014-12-10T17:30:26Z</DateUtc></StartTime><FrequencyChanges><FrequencyChange><Frequency dt:dt="r8">2327530000</Frequency><Timestamp dt:dt="r8">1048467676746</Timestamp><Current dt:dt="r8">0</Current><DateUtc dt:dt="string">2014-12-10T17:30:26Z</DateUtc></FrequencyChange></FrequencyChanges></Clock>\n,v4_BCL_bal-10-1,60.001,1.0.0.222,1,951752358,2.0.10.242,2.0.10.242,12-10-2014,12/10/2014 5:30:27 PM,12:30:27,2.0.10.147,27,,,14,1,9,,,,,,,1,,,d,,0.251,,,9.7,,,30.64,,,,,,ExposureProc,,,,vowel 1,vowel 2,,,,Block1,d1_f0_9_70_f2_30_64_dur_0_251_num_125.wav,,,,
v4_BCL_bal,10,1,<?xml version="1.0"?>\n<Clock xmlns:dt="urn:schemas-microsoft-com:datatypes"><Description dt:dt="string">E-Prime Primary Realtime Clock</Description><StartTime><Timestamp dt:dt="int">0</Timestamp><DateUtc dt:dt="string">2014-12-10T17:30:26Z</DateUtc></StartTime><FrequencyChanges><FrequencyChange><Frequency dt:dt="r8">2327530000</Frequency><Timestamp dt:dt="r8">1048467676746</Timestamp><Current dt:dt="r8">0</Current><DateUtc dt:dt="string">2014-12-10T17:30:26Z</DateUtc></FrequencyChange></FrequencyChanges></Clock>\n,v4_BCL_bal-10-1,60.001,1.0.0.222,1,951752358,2.0.10.242,2.0.10.242,12-10-2014,12/10/2014 5:30:27 PM,12:30:27,2.0.10.147,28,,,9,1,10,,,,,,,2,,,b,,0.249,,,7.5,,,31.1,,,,,,ExposureProc,,,,vowel 1,vowel 2,,,,Block1,b2_f0_7_50_f2_31_10_dur_0_249_num_349.wav,,,,
v4_BCL_bal,10,1,<?xml version="1.0"?>\n<Clock xmlns:dt="urn:schemas-microsoft-com:datatypes"><Description dt:dt="string">E-Prime Primary Realtime Clock</Description><StartTime><Timestamp dt:dt="int">0</Timestamp><DateUtc dt:dt="string">2014-12-10T17:30:26Z</DateUtc></StartTime><FrequencyChanges><FrequencyChange><Frequency dt:dt="r8">2327530000</Frequency><Timestamp dt:dt="r8">1048467676746</Timestamp><Current dt:dt="r8">0</Current><DateUtc dt:dt="string">2014-12-10T17:30:26Z</DateUtc></FrequencyChange></FrequencyChanges></Clock>\n,v4_BCL_bal-10-1,60.001,1.0.0.222,1,951752358,2.0.10.242,2.0.10.242,12-10-2014,12/10/2014 5:30:27 PM,12:30:27,2.0.10.147,29,,,18,1,11,,,,,,,1,,,d,,0.244,,,9.82,,,30.89,,,,,,ExposureProc,,,,vowel 1,vowel 2,,,,Block1,d1_f0_9_82_f2_30_89_dur_0_244_num_189.wav,,,,
v4_BCL_bal,10,1,<?xml version="1.0"?>\n<Clock xmlns:dt="urn:schemas-microsoft-com:datatypes"><Description dt:dt="string">E-Prime Primary Realtime Clock</Description><StartTime><Timestamp dt:dt="int">0</Timestamp><DateUtc dt:dt="string">2014-12-10T17:30:26Z</DateUtc></StartTime><FrequencyChanges><FrequencyChange><Frequency dt:dt="r8">2327530000</Frequency><Timestamp dt:dt="r8">1048467676746</Timestamp><Current dt:dt="r8">0</Current><DateUtc dt:dt="string">2014-12-10T17:30:26Z</DateUtc></FrequencyChange></FrequencyChanges></Clock>\n,v4_BCL_bal-10-1,60.001,1.0.0.222,1,951752358,2.0.10.242,2.0.10.242,12-10-2014,12/10/2014 5:30:27 PM,12:30:27,2.0.10.147,30,,,19,1,12,,,,,,,2,,,d,,0.246,,,9.05,,,29.08,,,,,,ExposureProc,,,,vowel 1,vowel 2,,,,Block1,d2_f0_9_05_f2_29_08_dur_0_246_num_447.wav,,,,
v4_BCL_bal,10,1,<?xml version="1.0"?>\n<Clock xmlns:dt="urn:schemas-microsoft-com:datatypes"><Description dt:dt="string">E-Prime Primary Realtime Clock</Description><StartTime><Timestamp dt:dt="int">0</Timestamp><DateUtc dt:dt="string">2014-12-10T17:30:26Z</DateUtc></StartTime><FrequencyChanges><FrequencyChange><Frequency dt:dt="r8">2327530000</Frequency><Timestamp dt:dt="r8">1048467676746</Timestamp><Current dt:dt="r8">0</Current><DateUtc dt:dt="string">2014-12-10T17:30:26Z</DateUtc></FrequencyChange></FrequencyChanges></Clock>\n,v4_BCL_bal-10-1,60.001,1.0.0.222,1,951752358,2.0.10.242,2.0.10.242,12-10-2014,12/10/2014 5:30:27 PM,12:30:27,2.0.10.147,31,,,33,1,13,,,,,,,2,,,g,,0.25,,,8.05,,,30.24,,,,,,ExposureProc,,,,vowel 1,vowel 2,,,,Block1,g2_f0_8_05_f2_30_24_dur_0_250_num_516.wav,,,,
v4_BCL_bal,10,1,<?xml version="1.0"?>\n<Clock xmlns:dt="urn:schemas-microsoft-com:datatypes"><Description dt:dt="string">E-Prime Primary Realtime Clock</Description><StartTime><Timestamp dt:dt="int">0</Timestamp><DateUtc dt:dt="string">2014-12-10T17:30:26Z</DateUtc></StartTime><FrequencyChanges><FrequencyChange><Frequency dt:dt="r8">2327530000</Frequency><Timestamp dt:dt="r8">1048467676746</Timestamp><Current dt:dt="r8">0</Current><DateUtc dt:dt="string">2014-12-10T17:30:26Z</DateUtc></FrequencyChange></FrequencyChanges></Clock>\n,v4_BCL_bal-10-1,60.001,1.0.0.222,1,951752358,2.0.10.242,2.0.10.242,12-10-2014,12/10/2014 5:30:27 PM,12:30:27,2.0.10.147,32,,,8,1,14,,,,,,,2,,,b,,0.252,,,9.34,,,28.86,,,,,,ExposureProc,,,,vowel 1,vowel 2,,,,Block1,b2_f0_9_34_f2_28_86_dur_0_252_num_400.wav,,,,
v4_BCL_bal,10,1,<?xml version="1.0"?>\n<Clock xmlns:dt="urn:schemas-microsoft-com:datatypes"><Description dt:dt="string">E-Prime Primary Realtime Clock</Description><StartTime><Timestamp dt:dt="int">0</Timestamp><DateUtc dt:dt="string">2014-12-10T17:30:26Z</DateUtc></StartTime><FrequencyChanges><FrequencyChange><Frequency dt:dt="r8">2327530000</Frequency><Timestamp dt:dt="r8">1048467676746</Timestamp><Current dt:dt="r8">0</Current><DateUtc dt:dt="string">2014-12-10T17:30:26Z</DateUtc></FrequencyChange></FrequencyChanges></Clock>\n,v4_BCL_bal-10-1,60.001,1.0.0.222,1,951752358,2.0.10.242,2.0.10.242,12-10-2014,12/10/2014 5:30:27 PM,12:30:27,2.0.10.147,33,,,10,1,15,,,,,,,1,,,b,,0.251,,,9.91,,,29.71,,,,,,ExposureProc,,,,vowel 1,vowel 2,,,,Block1,b1_f0_9_91_f2_29_71_dur_0_251_num_97.wav,,,,
v4_BCL_bal,10,1,<?xml version="1.0"?>\n<Clock xmlns:dt="urn:schemas-microsoft-com:datatypes"><Description dt:dt="string">E-Prime Primary Realtime Clock</Description><StartTime><Timestamp dt:dt="int">0</Timestamp><DateUtc dt:dt="string">2014-12-10T17:30:26Z</DateUtc></StartTime><FrequencyChanges><FrequencyChange><Frequency dt:dt="r8">2327530000</Frequency><Timestamp dt:dt="r8">1048467676746</Timestamp><Current dt:dt="r8">0</Current><DateUtc dt:dt="string">2014-12-10T17:30:26Z</DateUtc></FrequencyChange></FrequencyChanges></Clock>\n,v4_BCL_bal-10-1,60.001,1.0.0.222,1,951752358,2.0.10.242,2.0.10.242,12-10-2014,12/10/2014 5:30:27 PM,12:30:27,2.0.10.147,34,,,6,1,16,,,,,,,2,,,b,,0.251,,,8.93,,,29.96,,,,,,ExposureProc,,,,vowel 1,vowel 2,,,,Block1,b2_f0_8_93_f2_29_96_dur_0_251_num_332.wav,,,,
v4_BCL_bal,10,1,<?xml version="1.0"?>\n<Clock xmlns:dt="urn:schemas-microsoft-com:datatypes"><Description dt:dt="string">E-Prime Primary Realtime Clock</Description><StartTime><Timestamp dt:dt="int">0</Timestamp><DateUtc dt:dt="string">2014-12-10T17:30:26Z</DateUtc></StartTime><FrequencyChanges><FrequencyChange><Frequency dt:dt="r8">2327530000</Frequency><Timestamp dt:dt="r8">1048467676746</Timestamp><Current dt:dt="r8">0</Current><DateUtc dt:dt="string">2014-12-10T17:30:26Z</DateUtc></FrequencyChange></FrequencyChanges></Clock>\n,v4_BCL_bal-10-1,60.001,1.0.0.222,1,951752358,2.0.10.242,2.0.10.242,12-10-2014,12/10/2014 5:30:27 PM,12:30:27,2.0.10.147,35,,,27,1,17,,,,,,,1,,,g,,0.249,,,9.68,,,29.89,,,,,,ExposureProc,,,,vowel 1,vowel 2,,,,Block1,g1_f0_9_68_f2_29_89_dur_0_249_num_283.wav,,,,
v4_BCL_bal,10,1,<?xml version="1.0"?>\n<Clock xmlns:dt="urn:schemas-microsoft-com:datatypes"><Description dt:dt="string">E-Prime Primary Realtime Clock</Description><StartTime><Timestamp dt:dt="int">0</Timestamp><DateUtc dt:dt="string">2014-12-10T17:30:26Z</DateUtc></StartTime><FrequencyChanges><FrequencyChange><Frequency dt:dt="r8">2327530000</Frequency><Timestamp dt:dt="r8">1048467676746</Timestamp><Current dt:dt="r8">0</Current><DateUtc dt:dt="string">2014-12-10T17:30:26Z</DateUtc></FrequencyChange></FrequencyChanges></Clock>\n,v4_BCL_bal-10-1,60.001,1.0.0.222,1,951752358,2.0.10.242,2.0.10.242,12-10-2014,12/10/2014 5:30:27 PM,12:30:27,2.0.10.147,36,,,12,1,18,,,,,,,2,,,b,,0.249,,,8.68,,,30.12,,,,,,ExposureProc,,,,vowel 1,vowel 2,,,,Block1,b2_f0_8_68_f2_30_12_dur_0_249_num_373.wav,,,,
v4_BCL_bal,10,1,<?xml version="1.0"?>\n<Clock xmlns:dt="urn:schemas-microsoft-com:datatypes"><Description dt:dt="string">E-Prime Primary Realtime Clock</Description><StartTime><Timestamp dt:dt="int">0</Timestamp><DateUtc dt:dt="string">2014-12-10T17:30:26Z</DateUtc></StartTime><FrequencyChanges><FrequencyChange><Frequency dt:dt="r8">2327530000</Frequency><Timestamp dt:dt="r8">1048467676746</Timestamp><Current dt:dt="r8">0</Current><DateUtc dt:dt="string">2014-12-10T17:30:26Z</DateUtc></FrequencyChange></FrequencyChanges></Clock>\n,v4_BCL_bal-10-1,60.001,1.0.0.222,1,951752358,2.0.10.242,2.0.10.242,12-10-2014,12/10/2014 5:30:27 PM,12:30:27,2.0.10.147,37,,,21,1,19,,,,,,,1,,,d,,0.248,,,9.06,,,31.49,,,,,,ExposureProc,,,,vowel 1,vowel 2,,,,Block1,d1_f0_9_06_f2_31_49_dur_0_248_num_155.wav,,,,
v4_BCL_bal,10,1,<?xml version="1.0"?>\n<Clock xmlns:dt="urn:schemas-microsoft-com:datatypes"><Description dt:dt="string">E-Prime Primary Realtime Clock</Description><StartTime><Timestamp dt:dt="int">0</Timestamp><DateUtc dt:dt="string">2014-12-10T17:30:26Z</DateUtc></StartTime><FrequencyChanges><FrequencyChange><Frequency dt:dt="r8">2327530000</Frequency><Timestamp dt:dt="r8">1048467676746</Timestamp><Current dt:dt="r8">0</Current><DateUtc dt:dt="string">2014-12-10T17:30:26Z</DateUtc></FrequencyChange></FrequencyChanges></Clock>\n,v4_BCL_bal-10-1,60.001,1.0.0.222,1,951752358,2.0.10.242,2.0.10.242,12-10-2014,12/10/2014 5:30:27 PM,12:30:27,2.0.10.147,38,,,22,1,20,,,,,,,1,,,d,,0.252,,,9.66,,,29.68,,,,,,ExposureProc,,,,vowel 1,vowel 2,,,,Block1,d1_f0_9_66_f2_29_68_dur_0_252_num_145.wav,,,,
v4_BCL_bal,10,1,<?xml version="1.0"?>\n<Clock xmlns:dt="urn:schemas-microsoft-com:datatypes"><Description dt:dt="string">E-Prime Primary Realtime Clock</Description><StartTime><Timestamp dt:dt="int">0</Timestamp><DateUtc dt:dt="string">2014-12-10T17:30:26Z</DateUtc></StartTime><FrequencyChanges><FrequencyChange><Frequency dt:dt="r8">2327530000</Frequency><Timestamp dt:dt="r8">1048467676746</Timestamp><Current dt:dt="r8">0</Current><DateUtc dt:dt="string">2014-12-10T17:30:26Z</DateUtc></FrequencyChange></FrequencyChanges></Clock>\n,v4_BCL_bal-10-1,60.001,1.0.0.222,1,951752358,2.0.10.242,2.0.10.242,12-10-2014,12/10/2014 5:30:27 PM,12:30:27,2.0.10.147,39,,,28,1,21,,,,,,,2,,,g,,0.249,,,7,,,31.82,,,,,,ExposureProc,,,,vowel 1,vowel 2,,,,Block1,g2_f0_7_00_f2_31_82_dur_0_249_num_546.wav,,,,
v4_BCL_bal,10,1,<?xml version="1.0"?>\n<Clock xmlns:dt="urn:schemas-microsoft-com:datatypes"><Description dt:dt="string">E-Prime Primary Realtime Clock</Description><StartTime><Timestamp dt:dt="int">0</Timestamp><DateUtc dt:dt="string">2014-12-10T17:30:26Z</DateUtc></StartTime><FrequencyChanges><FrequencyChange><Frequency dt:dt="r8">2327530000</Frequency><Timestamp dt:dt="r8">1048467676746</Timestamp><Current dt:dt="r8">0</Current><DateUtc dt:dt="string">2014-12-10T17:30:26Z</DateUtc></FrequencyChange></FrequencyChanges></Clock>\n,v4_BCL_bal-10-1,60.001,1.0.0.222,1,951752358,2.0.10.242,2.0.10.242,12-10-2014,12/10/2014 5:30:27 PM,12:30:27,2.0.10.147,40,,,25,1,22,,,,,,,1,,,g,,0.247,,,9.86,,,30.57,,,,,,ExposureProc,,,,vowel 1,vowel 2,,,,Block1,g1_f0_9_86_f2_30_57_dur_0_247_num_244.wav,,,,
v4_BCL_bal,10,1,<?xml version="1.0"?>\n<Clock xmlns:dt="urn:schemas-microsoft-com:datatypes"><Description dt:dt="string">E-Prime Primary Realtime Clock</Description><StartTime><Timestamp dt:dt="int">0</Timestamp><DateUtc dt:dt="string">2014-12-10T17:30:26Z</DateUtc></StartTime><FrequencyChanges><FrequencyChange><Frequency dt:dt="r8">2327530000</Frequency><Timestamp dt:dt="r8">1048467676746</Timestamp><Current dt:dt="r8">0</Current><DateUtc dt:dt="string">2014-12-10T17:30:26Z</DateUtc></FrequencyChange></FrequencyChanges></Clock>\n,v4_BCL_bal-10-1,60.001,1.0.0.222,1,951752358,2.0.10.242,2.0.10.242,12-10-2014,12/10/2014 5:30:27 PM,12:30:27,2.0.10.147,41,,,2,1,23,,,,,,,1,,,b,,0.249,,,10.41,,,30.13,,,,,,ExposureProc,,,,vowel 1,vowel 2,,,,Block1,b1_f0_10_41_f2_30_13_dur_0_249_num_100.wav,,,,
v4_BCL_bal,10,1,<?xml version="1.0"?>\n<Clock xmlns:dt="urn:schemas-microsoft-com:datatypes"><Description dt:dt="string">E-Prime Primary Realtime Clock</Description><StartTime><Timestamp dt:dt="int">0</Timestamp><DateUtc dt:dt="string">2014-12-10T17:30:26Z</DateUtc></StartTime><FrequencyChanges><FrequencyChange><Frequency dt:dt="r8">2327530000</Frequency><Timestamp dt:dt="r8">1048467676746</Timestamp><Current dt:dt="r8">0</Current><DateUtc dt:dt="string">2014-12-10T17:30:26Z</DateUtc></FrequencyChange></FrequencyChanges></Clock>\n,v4_BCL_bal-10-1,60.001,1.0.0.222,1,951752358,2.0.10.242,2.0.10.242,12-10-2014,12/10/2014 5:30:27 PM,12:30:27,2.0.10.147,42,,,15,1,24,,,,,,,2,,,d,,0.249,,,8.16,,,30.1,,,,,,ExposureProc,,,,vowel 1,vowel 2,,,,Block1,d2_f0_8_16_f2_30_10_dur_0_249_num_410.wav,,,,
v4_BCL_bal,10,1,<?xml version="1.0"?>\n<Clock xmlns:dt="urn:schemas-microsoft-com:datatypes"><Description dt:dt="string">E-Prime Primary Realtime Clock</Description><StartTime><Timestamp dt:dt="int">0</Timestamp><DateUtc dt:dt="string">2014-12-10T17:30:26Z</DateUtc></StartTime><FrequencyChanges><FrequencyChange><Frequency dt:dt="r8">2327530000</Frequency><Timestamp dt:dt="r8">1048467676746</Timestamp><Current dt:dt="r8">0</Current><DateUtc dt:dt="string">2014-12-10T17:30:26Z</DateUtc></FrequencyChange></FrequencyChanges></Clock>\n,v4_BCL_bal-10-1,60.001,1.0.0.222,1,951752358,2.0.10.242,2.0.10.242,12-10-2014,12/10/2014 5:30:27 PM,12:30:27,2.0.10.147,43,,,17,1,25,,,,,,,2,,,d,,0.245,,,8.14,,,29.86,,,,,,ExposureProc,,,,vowel 1,vowel 2,,,,Block1,d2_f0_8_14_f2_29_86_dur_0_245_num_455.wav,,,,
v4_BCL_bal,10,1,<?xml version="1.0"?>\n<Clock xmlns:dt="urn:schemas-microsoft-com:datatypes"><Description dt:dt="string">E-Prime Primary Realtime Clock</Description><StartTime><Timestamp dt:dt="int">0</Timestamp><DateUtc dt:dt="string">2014-12-10T17:30:26Z</DateUtc></StartTime><FrequencyChanges><FrequencyChange><Frequency dt:dt="r8">2327530000</Frequency><Timestamp dt:dt="r8">1048467676746</Timestamp><Current dt:dt="r8">0</Current><DateUtc dt:dt="string">2014-12-10T17:30:26Z</DateUtc></FrequencyChange></FrequencyChanges></Clock>\n,v4_BCL_bal-10-1,60.001,1.0.0.222,1,951752358,2.0.10.242,2.0.10.242,12-10-2014,12/10/2014 5:30:27 PM,12:30:27,2.0.10.147,44,,,29,1,26,,,,,,,1,,,g,,0.246,,,9.52,,,31.14,,,,,,ExposureProc,,,,vowel 1,vowel 2,,,,Block1,g1_f0_9_52_f2_31_14_dur_0_246_num_225.wav,,,,
v4_BCL_bal,10,1,<?xml version="1.0"?>\n<Clock xmlns:dt="urn:schemas-microsoft-com:datatypes"><Description dt:dt="string">E-Prime Primary Realtime Clock</Description><StartTime><Timestamp dt:dt="int">0</Timestamp><DateUtc dt:dt="string">2014-12-10T17:30:26Z</DateUtc></StartTime><FrequencyChanges><FrequencyChange><Frequency dt:dt="r8">2327530000</Frequency><Timestamp dt:dt="r8">1048467676746</Timestamp><Current dt:dt="r8">0</Current><DateUtc dt:dt="string">2014-12-10T17:30:26Z</DateUtc></FrequencyChange></FrequencyChanges></Clock>\n,v4_BCL_bal-10-1,60.001,1.0.0.222,1,951752358,2.0.10.242,2.0.10.242,12-10-2014,12/10/2014 5:30:27 PM,12:30:27,2.0.10.147,45,,,24,1,27,,,,,,,2,,,d,,0.247,,,8.76,,,29.49,,,,,,ExposureProc,,,,vowel 1,vowel 2,,,,Block1,d2_f0_8_76_f2_29_49_dur_0_247_num_435.wav,,,,
v4_BCL_bal,10,1,<?xml version="1.0"?>\n<Clock xmlns:dt="urn:schemas-microsoft-com:datatypes"><Description dt:dt="string">E-Prime Primary Realtime Clock</Description><StartTime><Timestamp dt:dt="int">0</Timestamp><DateUtc dt:dt="string">2014-12-10T17:30:26Z</DateUtc></StartTime><FrequencyChanges><FrequencyChange><Frequency dt:dt="r8">2327530000</Frequency><Timestamp dt:dt="r8">1048467676746</Timestamp><Current dt:dt="r8">0</Current><DateUtc dt:dt="string">2014-12-10T17:30:26Z</DateUtc></FrequencyChange></FrequencyChanges></Clock>\n,v4_BCL_bal-10-1,60.001,1.0.0.222,1,951752358,2.0.10.242,2.0.10.242,12-10-2014,12/10/2014 5:30:27 PM,12:30:27,2.0.10.147,46,,,20,1,28,,,,,,,1,,,d,,0.244,,,9.58,,,30.95,,,,,,ExposureProc,,,,vowel 1,vowel 2,,,,Block1,d1_f0_9_58_f2_30_95_dur_0_244_num_101.wav,,,,
v4_BCL_bal,10,1,<?xml version="1.0"?>\n<Clock xmlns:dt="urn:schemas-microsoft-com:datatypes"><Description dt:dt="string">E-Prime Primary Realtime Clock</Description><StartTime><Timestamp dt:dt="int">0</Timestamp><DateUtc dt:dt="string">2014-12-10T17:30:26Z</DateUtc></StartTime><FrequencyChanges><FrequencyChange><Frequency dt:dt="r8">2327530000</Frequency><Timestamp dt:dt="r8">1048467676746</Timestamp><Current dt:dt="r8">0</Current><DateUtc dt:dt="string">2014-12-10T17:30:26Z</DateUtc></FrequencyChange></FrequencyChanges></Clock>\n,v4_BCL_bal-10-1,60.001,1.0.0.222,1,951752358,2.0.10.242,2.0.10.242,12-10-2014,12/10/2014 5:30:27 PM,12:30:27,2.0.10.147,47,,,3,1,29,,,,,,,1,,,b,,0.248,,,9.76,,,30.96,,,,,,ExposureProc,,,,vowel 1,vowel 2,,,,Block1,b1_f0_9_76_f2_30_96_dur_0_248_num_98.wav,,,,
v4_BCL_bal,10,1,<?xml version="1.0"?>\n<Clock xmlns:dt="urn:schemas-microsoft-com:datatypes"><Description dt:dt="string">E-Prime Primary Realtime Clock</Description><StartTime><Timestamp dt:dt="int">0</Timestamp><DateUtc dt:dt="string">2014-12-10T17:30:26Z</DateUtc></StartTime><FrequencyChanges><FrequencyChange><Frequency dt:dt="r8">2327530000</Frequency><Timestamp dt:dt="r8">1048467676746</Timestamp><Current dt:dt="r8">0</Current><DateUtc dt:dt="string">2014-12-10T17:30:26Z</DateUtc></FrequencyChange></FrequencyChanges></Clock>\n,v4_BCL_bal-10-1,60.001,1.0.0.222,1,951752358,2.0.10.242,2.0.10.242,12-10-2014,12/10/2014 5:30:27 PM,12:30:27,2.0.10.147,48,,,13,1,30,,,,,,,1,,,d,,0.249,,,9.78,,,30.81,,,,,,ExposureProc,,,,vowel 1,vowel 2,,,,Block1,d1_f0_9_78_f2_30_81_dur_0_249_num_104.wav,,,,
v4_BCL_bal,10,1,<?xml version="1.0"?>\n<Clock xmlns:dt="urn:schemas-microsoft-com:datatypes"><Description dt:dt="string">E-Prime Primary Realtime Clock</Description><StartTime><Timestamp dt:dt="int">0</Timestamp><DateUtc dt:dt="string">2014-12-10T17:30:26Z</DateUtc></StartTime><FrequencyChanges><FrequencyChange><Frequency dt:dt="r8">2327530000</Frequency><Timestamp dt:dt="r8">1048467676746</Timestamp><Current dt:dt="r8">0</Current><DateUtc dt:dt="string">2014-12-10T17:30:26Z</DateUtc></FrequencyChange></FrequencyChanges></Clock>\n,v4_BCL_bal-10-1,60.001,1.0.0.222,1,951752358,2.0.10.242,2.0.10.242,12-10-2014,12/10/2014 5:30:27 PM,12:30:27,2.0.10.147,49,,,16,1,31,,,,,,,2,,,d,,0.252,,,9.56,,,28.47,,,,,,ExposureProc,,,,vowel 1,vowel 2,,,,Block1,d2_f0_9_56_f2_28_47_dur_0_252_num_415.wav,,,,
v4_BCL_bal,10,1,<?xml version="1.0"?>\n<Clock xmlns:dt="urn:schemas-microsoft-com:datatypes"><Description dt:dt="string">E-Prime Primary Realtime Clock</Description><StartTime><Timestamp dt:dt="int">0</Timestamp><DateUtc dt:dt="string">2014-12-10T17:30:26Z</DateUtc></StartTime><FrequencyChanges><FrequencyChange><Frequency dt:dt="r8">2327530000</Frequency><Timestamp dt:dt="r8">1048467676746</Timestamp><Current dt:dt="r8">0</Current><DateUtc dt:dt="string">2014-12-10T17:30:26Z</DateUtc></FrequencyChange></FrequencyChanges></Clock>\n,v4_BCL_bal-10-1,60.001,1.0.0.222,1,951752358,2.0.10.242,2.0.10.242,12-10-2014,12/10/2014 5:30:27 PM,12:30:27,2.0.10.147,50,,,4,1,32,,,,,,,1,,,b,,0.248,,,10.04,,,30.78,,,,,,ExposureProc,,,,vowel 1,vowel 2,,,,Block1,b1_f0_10_04_f2_30_78_dur_0_248_num_61.wav,,,,
v4_BCL_bal,10,1,<?xml version="1.0"?>\n<Clock xmlns:dt="urn:schemas-microsoft-com:datatypes"><Description dt:dt="string">E-Prime Primary Realtime Clock</Description><StartTime><Timestamp dt:dt="int">0</Timestamp><DateUtc dt:dt="string">2014-12-10T17:30:26Z</DateUtc></StartTime><FrequencyChanges><FrequencyChange><Frequency dt:dt="r8">2327530000</Frequency><Timestamp dt:dt="r8">1048467676746</Timestamp><Current dt:dt="r8">0</Current><DateUtc dt:dt="string">2014-12-10T17:30:26Z</DateUtc></FrequencyChange></FrequencyChanges></Clock>\n,v4_BCL_bal-10-1,60.001,1.0.0.222,1,951752358,2.0.10.242,2.0.10.242,12-10-2014,12/10/2014 5:30:27 PM,12:30:27,2.0.10.147,51,,,11,1,33,,,,,,,2,,,b,,0.248,,,9.94,,,28.91,,,,,,ExposureProc,,,,vowel 1,vowel 2,,,,Block1,b2_f0_9_94_f2_28_91_dur_0_248_num_364.wav,,,,
v4_BCL_bal,10,1,<?xml version="1.0"?>\n<Clock xmlns:dt="urn:schemas-microsoft-com:datatypes"><Description dt:dt="string">E-Prime Primary Realtime Clock</Description><StartTime><Timestamp dt:dt="int">0</Timestamp><DateUtc dt:dt="string">2014-12-10T17:30:26Z</DateUtc></StartTime><FrequencyChanges><FrequencyChange><Frequency dt:dt="r8">2327530000</Frequency><Timestamp dt:dt="r8">1048467676746</Timestamp><Current dt:dt="r8">0</Current><DateUtc dt:dt="string">2014-12-10T17:30:26Z</DateUtc></FrequencyChange></FrequencyChanges></Clock>\n,v4_BCL_bal-10-1,60.001,1.0.0.222,1,951752358,2.0.10.242,2.0.10.242,12-10-2014,12/10/2014 5:30:27 PM,12:30:27,2.0.10.147,52,,,36,1,34,,,,,,,2,,,g,,0.251,,,9.48,,,28.04,,,,,,ExposureProc,,,,vowel 1,vowel 2,,,,Block1,g2_f0_9_48_f2_28_04_dur_0_251_num_554.wav,,,,
v4_BCL_bal,10,1,<?xml version="1.0"?>\n<Clock xmlns:dt="urn:schemas-microsoft-com:datatypes"><Description dt:dt="string">E-Prime Primary Realtime Clock</Description><StartTime><Timestamp dt:dt="int">0</Timestamp><DateUtc dt:dt="string">2014-12-10T17:30:26Z</DateUtc></StartTime><FrequencyChanges><FrequencyChange><Frequency dt:dt="r8">2327530000</Frequency><Timestamp dt:dt="r8">1048467676746</Timestamp><Current dt:dt="r8">0</Current><DateUtc dt:dt="string">2014-12-10T17:30:26Z</DateUtc></FrequencyChange></FrequencyChanges></Clock>\n,v4_BCL_bal-10-1,60.001,1.0.0.222,1,951752358,2.0.10.242,2.0.10.242,12-10-2014,12/10/2014 5:30:27 PM,12:30:27,2.0.10.147,53,,,30,1,35,,,,,,,2,,,g,,0.25,,,8.83,,,29.58,,,,,,ExposureProc,,,,vowel 1,vowel 2,,,,Block1,g2_f0_8_83_f2_29_58_dur_0_250_num_511.wav,,,,
v4_BCL_bal,10,1,<?xml version="1.0"?>\n<Clock xmlns:dt="urn:schemas-microsoft-com:datatypes"><Description dt:dt="string">E-Prime Primary Realtime Clock</Description><StartTime><Timestamp dt:dt="int">0</Timestamp><DateUtc dt:dt="string">2014-12-10T17:30:26Z</DateUtc></StartTime><FrequencyChanges><FrequencyChange><Frequency dt:dt="r8">2327530000</Frequency><Timestamp dt:dt="r8">1048467676746</Timestamp><Current dt:dt="r8">0</Current><DateUtc dt:dt="string">2014-12-10T17:30:26Z</DateUtc></FrequencyChange></FrequencyChanges></Clock>\n,v4_BCL_bal-10-1,60.001,1.0.0.222,1,951752358,2.0.10.242,2.0.10.242,12-10-2014,12/10/2014 5:30:27 PM,12:30:27,2.0.10.147,54,,,35,1,36,,,,,,,1,,,g,,0.253,,,9.69,,,30.27,,,,,,ExposureProc,,,,vowel 1,vowel 2,,,,Block1,g1_f0_9_69_f2_30_27_dur_0_253_num_265.wav,,,,
v4_BCL_bal,10,1,<?xml version="1.0"?>\n<Clock xmlns:dt="urn:schemas-microsoft-com:datatypes"><Description dt:dt="string">E-Prime Primary Realtime Clock</Description><StartTime><Timestamp dt:dt="int">0</Timestamp><DateUtc dt:dt="string">2014-12-10T17:30:26Z</DateUtc></StartTime><FrequencyChanges><FrequencyChange><Frequency dt:dt="r8">2327530000</Frequency><Timestamp dt:dt="r8">1048467676746</Timestamp><Current dt:dt="r8">0</Current><DateUtc dt:dt="string">2014-12-10T17:30:26Z</DateUtc></FrequencyChange></FrequencyChanges></Clock>\n,v4_BCL_bal-10-1,60.001,1.0.0.222,1,951752358,2.0.10.242,2.0.10.242,12-10-2014,12/10/2014 5:30:27 PM,12:30:27,2.0.10.147,55,,,,,,1,1,1,,,,2,,,b,,0.249,,,8.91,,,28.67,,,,,,TrialProc1,,,,vowel 1,vowel 2,1,1484,261226,Block2,b2_f0_8_91_f2_28_67_dur_0_249_num_354.wav,,,,
v4_BCL_bal,10,1,<?xml version="1.0"?>\n<Clock xmlns:dt="urn:schemas-microsoft-com:datatypes"><Description dt:dt="string">E-Prime Primary Realtime Clock</Description><StartTime><Timestamp dt:dt="int">0</Timestamp><DateUtc dt:dt="string">2014-12-10T17:30:26Z</DateUtc></StartTime><FrequencyChanges><FrequencyChange><Frequency dt:dt="r8">2327530000</Frequency><Timestamp dt:dt="r8">1048467676746</Timestamp><Current dt:dt="r8">0</Current><DateUtc dt:dt="string">2014-12-10T17:30:26Z</DateUtc></FrequencyChange></FrequencyChanges></Clock>\n,v4_BCL_bal-10-1,60.001,1.0.0.222,1,951752358,2.0.10.242,2.0.10.242,12-10-2014,12/10/2014 5:30:27 PM,12:30:27,2.0.10.147,56,,,,,,2,1,2,,,,1,,,b,,0.251,,,9.81,,,31.02,,,,,,TrialProc1,,,,vowel 1,vowel 2,1,184,262226,Block2,b1_f0_9_81_f2_31_02_dur_0_251_num_79.wav,,,,
v4_BCL_bal,10,1,<?xml version="1.0"?>\n<Clock xmlns:dt="urn:schemas-microsoft-com:datatypes"><Description dt:dt="string">E-Prime Primary Realtime Clock</Description><StartTime><Timestamp dt:dt="int">0</Timestamp><DateUtc dt:dt="string">2014-12-10T17:30:26Z</DateUtc></StartTime><FrequencyChanges><FrequencyChange><Frequency dt:dt="r8">2327530000</Frequency><Timestamp dt:dt="r8">1048467676746</Timestamp><Current dt:dt="r8">0</Current><DateUtc dt:dt="string">2014-12-10T17:30:26Z</DateUtc></FrequencyChange></FrequencyChanges></Clock>\n,v4_BCL_bal-10-1,60.001,1.0.0.222,1,951752358,2.0.10.242,2.0.10.242,12-10-2014,12/10/2014 5:30:27 PM,12:30:27,2.0.10.147,57,,,,,,3,1,3,,,,2,,,b,,0.248,,,8.68,,,28.93,,,,,,TrialProc1,,,,vowel 1,vowel 2,1,70,263096,Block2,b2_f0_8_68_f2_28_93_dur_0_248_num_345.wav,,,,
v4_BCL_bal,10,1,<?xml version="1.0"?>\n<Clock xmlns:dt="urn:schemas-microsoft-com:datatypes"><Description dt:dt="string">E-Prime Primary Realtime Clock</Description><StartTime><Timestamp dt:dt="int">0</Timestamp><DateUtc dt:dt="string">2014-12-10T17:30:26Z</DateUtc></StartTime><FrequencyChanges><FrequencyChange><Frequency dt:dt="r8">2327530000</Frequency><Timestamp dt:dt="r8">1048467676746</Timestamp><Current dt:dt="r8">0</Current><DateUtc dt:dt="string">2014-12-10T17:30:26Z</DateUtc></FrequencyChange></FrequencyChanges></Clock>\n,v4_BCL_bal-10-1,60.001,1.0.0.222,1,951752358,2.0.10.242,2.0.10.242,12-10-2014,12/10/2014 5:30:27 PM,12:30:27,2.0.10.147,58,,,,,,4,1,4,,,,2,,,b,,0.248,,,7.65,,,29.54,,,,,,TrialProc1,,,,vowel 1,vowel 2,1,808,264717,Block2,b2_f0_7_65_f2_29_54_dur_0_248_num_360.wav,,,,
v4_BCL_bal,10,1,<?xml version="1.0"?>\n<Clock xmlns:dt="urn:schemas-microsoft-com:datatypes"><Description dt:dt="string">E-Prime Primary Realtime Clock</Description><StartTime><Timestamp dt:dt="int">0</Timestamp><DateUtc dt:dt="string">2014-12-10T17:30:26Z</DateUtc></StartTime><FrequencyChanges><FrequencyChange><Frequency dt:dt="r8">2327530000</Frequency><Timestamp dt:dt="r8">1048467676746</Timestamp><Current dt:dt="r8">0</Current><DateUtc dt:dt="string">2014-12-10T17:30:26Z</DateUtc></FrequencyChange></FrequencyChanges></Clock>\n,v4_BCL_bal-10-1,60.001,1.0.0.222,1,951752358,2.0.10.242,2.0.10.242,12-10-2014,12/10/2014 5:30:27 PM,12:30:27,2.0.10.147,59,,,,,,5,1,5,,,,1,,,b,,0.25,,,9.44,,,30.65,,,,,,TrialProc1,,,,vowel 1,vowel 2,1,163,265689,Block2,b1_f0_9_44_f2_30_65_dur_0_250_num_72.wav,,,,
v4_BCL_bal,10,1,<?xml version="1.0"?>\n<Clock xmlns:dt="urn:schemas-microsoft-com:datatypes"><Description dt:dt="string">E-Prime Primary Realtime Clock</Description><StartTime><Timestamp dt:dt="int">0</Timestamp><DateUtc dt:dt="string">2014-12-10T17:30:26Z</DateUtc></StartTime><FrequencyChanges><FrequencyChange><Frequency dt:dt="r8">2327530000</Frequency><Timestamp dt:dt="r8">1048467676746</Timestamp><Current dt:dt="r8">0</Current><DateUtc dt:dt="string">2014-12-10T17:30:26Z</DateUtc></FrequencyChange></FrequencyChanges></Clock>\n,v4_BCL_bal-10-1,60.001,1.0.0.222,1,951752358,2.0.10.242,2.0.10.242,12-10-2014,12/10/2014 5:30:27 PM,12:30:27,2.0.10.147,60,,,,,,6,1,6,,,,2,,,b,,0.252,,,8.62,,,29.33,,,,,,TrialProc1,,,,vowel 1,vowel 2,1,60,266569,Block2,b2_f0_8_62_f2_29_33_dur_0_252_num_386.wav,,,,
v4_BCL_bal,10,1,<?xml version="1.0"?>\n<Clock xmlns:dt="urn:schemas-microsoft-com:datatypes"><Description dt:dt="string">E-Prime Primary Realtime Clock</Description><StartTime><Timestamp dt:dt="int">0</Timestamp><DateUtc dt:dt="string">2014-12-10T17:30:26Z</DateUtc></StartTime><FrequencyChanges><FrequencyChange><Frequency dt:dt="r8">2327530000</Frequency><Timestamp dt:dt="r8">1048467676746</Timestamp><Current dt:dt="r8">0</Current><DateUtc dt:dt="string">2014-12-10T17:30:26Z</DateUtc></FrequencyChange></FrequencyChanges></Clock>\n,v4_BCL_bal-10-1,60.001,1.0.0.222,1,951752358,2.0.10.242,2.0.10.242,12-10-2014,12/10/2014 5:30:27 PM,12:30:27,2.0.10.147,61,,,,,,7,1,7,,,,1,,,b,,0.245,,,9.41,,,30.38,,,,,,TrialProc1,,,,vowel 1,vowel 2,,0,0,Block2,b1_f0_9_41_f2_30_38_dur_0_245_num_50.wav,,,,
v4_BCL_bal,10,1,<?xml version="1.0"?>\n<Clock xmlns:dt="urn:schemas-microsoft-com:datatypes"><Description dt:dt="string">E-Prime Primary Realtime Clock</Description><StartTime><Timestamp dt:dt="int">0</Timestamp><DateUtc dt:dt="string">2014-12-10T17:30:26Z</DateUtc></StartTime><FrequencyChanges><FrequencyChange><Frequency dt:dt="r8">2327530000</Frequency><Timestamp dt:dt="r8">1048467676746</Timestamp><Current dt:dt="r8">0</Current><DateUtc dt:dt="string">2014-12-10T17:30:26Z</DateUtc></FrequencyChange></FrequencyChanges></Clock>\n,v4_BCL_bal-10-1,60.001,1.0.0.222,1,951752358,2.0.10.242,2.0.10.242,12-10-2014,12/10/2014 5:30:27 PM,12:30:27,2.0.10.147,62,,,,,,8,1,8,,,,1,,,b,,0.25,,,10.24,,,30.25,,,,,,TrialProc1,,,,vowel 1,vowel 2,1,103,269795,Block2,b1_f0_10_24_f2_30_25_dur_0_250_num_93.wav,,,,
v4_BCL_bal,10,1,<?xml version="1.0"?>\n<Clock xmlns:dt="urn:schemas-microsoft-com:datatypes"><Description dt:dt="string">E-Prime Primary Realtime Clock</Description><StartTime><Timestamp dt:dt="int">0</Timestamp><DateUtc dt:dt="string">2014-12-10T17:30:26Z</DateUtc></StartTime><FrequencyChanges><FrequencyChange><Frequency dt:dt="r8">2327530000</Frequency><Timestamp dt:dt="r8">1048467676746</Timestamp><Current dt:dt="r8">0</Current><DateUtc dt:dt="string">2014-12-10T17:30:26Z</DateUtc></FrequencyChange></FrequencyChanges></Clock>\n,v4_BCL_bal-10-1,60.001,1.0.0.222,1,951752358,2.0.10.242,2.0.10.242,12-10-2014,12/10/2014 5:30:27 PM,12:30:27,2.0.10.147,63,,,,,,9,1,9,,,,2,,,b,,0.248,,,8.49,,,29.54,,,,,,TrialProc1,,,,vowel 1,vowel 2,1,182,270791,Block2,b2_f0_8_49_f2_29_54_dur_0_248_num_303.wav,,,,
v4_BCL_bal,10,1,<?xml version="1.0"?>\n<Clock xmlns:dt="urn:schemas-microsoft-com:datatypes"><Description dt:dt="string">E-Prime Primary Realtime Clock</Description><StartTime><Timestamp dt:dt="int">0</Timestamp><DateUtc dt:dt="string">2014-12-10T17:30:26Z</DateUtc></StartTime><FrequencyChanges><FrequencyChange><Frequency dt:dt="r8">2327530000</Frequency><Timestamp dt:dt="r8">1048467676746</Timestamp><Current dt:dt="r8">0</Current><DateUtc dt:dt="string">2014-12-10T17:30:26Z</DateUtc></FrequencyChange></FrequencyChanges></Clock>\n,v4_BCL_bal-10-1,60.001,1.0.0.222,1,951752358,2.0.10.242,2.0.10.242,12-10-2014,12/10/2014 5:30:27 PM,12:30:27,2.0.10.147,64,,,,,,10,1,10,,,,1,,,b,,0.253,,,10.75,,,29.93,,,,,,TrialProc1,,,,vowel 1,vowel 2,2,340,271949,Block2,b1_f0_10_75_f2_29_93_dur_0_253_num_27.wav,,,,
v4_BCL_bal,10,1,<?xml version="1.0"?>\n<Clock xmlns:dt="urn:schemas-microsoft-com:datatypes"><Description dt:dt="string">E-Prime Primary Realtime Clock</Description><StartTime><Timestamp dt:dt="int">0</Timestamp><DateUtc dt:dt="string">2014-12-10T17:30:26Z</DateUtc></StartTime><FrequencyChanges><FrequencyChange><Frequency dt:dt="r8">2327530000</Frequency><Timestamp dt:dt="r8">1048467676746</Timestamp><Current dt:dt="r8">0</Current><DateUtc dt:dt="string">2014-12-10T17:30:26Z</DateUtc></FrequencyChange></FrequencyChanges></Clock>\n,v4_BCL_bal-10-1,60.001,1.0.0.222,1,951752358,2.0.10.242,2.0.10.242,12-10-2014,12/10/2014 5:30:27 PM,12:30:27,2.0.10.147,65,,,,,,11,1,11,,,,2,,,b,,0.25,,,8.93,,,28.88,,,,,,TrialProc1,,,,vowel 1,vowel 2,1,218,272977,Block2,b2_f0_8_93_f2_28_88_dur_0_250_num_370.wav,,,,
v4_BCL_bal,10,1,<?xml version="1.0"?>\n<Clock xmlns:dt="urn:schemas-microsoft-com:datatypes"><Description dt:dt="string">E-Prime Primary Realtime Clock</Description><StartTime><Timestamp dt:dt="int">0</Timestamp><DateUtc dt:dt="string">2014-12-10T17:30:26Z</DateUtc></StartTime><FrequencyChanges><FrequencyChange><Frequency dt:dt="r8">2327530000</Frequency><Timestamp dt:dt="r8">1048467676746</Timestamp><Current dt:dt="r8">0</Current><DateUtc dt:dt="string">2014-12-10T17:30:26Z</DateUtc></FrequencyChange></FrequencyChanges></Clock>\n,v4_BCL_bal-10-1,60.001,1.0.0.222,1,951752358,2.0.10.242,2.0.10.242,12-10-2014,12/10/2014 5:30:27 PM,12:30:27,2.0.10.147,66,,,,,,12,1,12,,,,2,,,b,,0.252,,,8.49,,,28.92,,,,,,TrialProc1,,,,vowel 1,vowel 2,1,214,274006,Block2,b2_f0_8_49_f2_28_92_dur_0_252_num_318.wav,,,,
v4_BCL_bal,10,1,<?xml version="1.0"?>\n<Clock xmlns:dt="urn:schemas-microsoft-com:datatypes"><Description dt:dt="string">E-Prime Primary Realtime Clock</Description><StartTime><Timestamp dt:dt="int">0</Timestamp><DateUtc dt:dt="string">2014-12-10T17:30:26Z</DateUtc></StartTime><FrequencyChanges><FrequencyChange><Frequency dt:dt="r8">2327530000</Frequency><Timestamp dt:dt="r8">1048467676746</Timestamp><Current dt:dt="r8">0</Current><DateUtc dt:dt="string">2014-12-10T17:30:26Z</DateUtc></FrequencyChange></FrequencyChanges></Clock>\n,v4_BCL_bal-10-1,60.001,1.0.0.222,1,951752358,2.0.10.242,2.0.10.242,12-10-2014,12/10/2014 5:30:27 PM,12:30:27,2.0.10.147,67,,,,,,13,1,13,,,,1,,,b,,0.251,,,9.6,,,31.34,,,,,,TrialProc1,,,,vowel 1,vowel 2,1,138,274963,Block2,b1_f0_9_60_f2_31_34_dur_0_251_num_71.wav,,,,
v4_BCL_bal,10,1,<?xml version="1.0"?>\n<Clock xmlns:dt="urn:schemas-microsoft-com:datatypes"><Description dt:dt="string">E-Prime Primary Realtime Clock</Description><StartTime><Timestamp dt:dt="int">0</Timestamp><DateUtc dt:dt="string">2014-12-10T17:30:26Z</DateUtc></StartTime><FrequencyChanges><FrequencyChange><Frequency dt:dt="r8">2327530000</Frequency><Timestamp dt:dt="r8">1048467676746</Timestamp><Current dt:dt="r8">0</Current><DateUtc dt:dt="string">2014-12-10T17:30:26Z</DateUtc></FrequencyChange></FrequencyChanges></Clock>\n,v4_BCL_bal-10-1,60.001,1.0.0.222,1,951752358,2.0.10.242,2.0.10.242,12-10-2014,12/10/2014 5:30:27 PM,12:30:27,2.0.10.147,68,,,,,,14,1,14,,,,2,,,b,,0.249,,,8.31,,,29.74,,,,,,TrialProc1,,,,vowel 1,vowel 2,1,95,275870,Block2,b2_f0_8_31_f2_29_74_dur_0_249_num_344.wav,,,,
v4_BCL_bal,10,1,<?xml version="1.0"?>\n<Clock xmlns:dt="urn:schemas-microsoft-com:datatypes"><Description dt:dt="string">E-Prime Primary Realtime Clock</Description><StartTime><Timestamp dt:dt="int">0</Timestamp><DateUtc dt:dt="string">2014-12-10T17:30:26Z</DateUtc></StartTime><FrequencyChanges><FrequencyChange><Frequency dt:dt="r8">2327530000</Frequency><Timestamp dt:dt="r8">1048467676746</Timestamp><Current dt:dt="r8">0</Current><DateUtc dt:dt="string">2014-12-10T17:30:26Z</DateUtc></FrequencyChange></FrequencyChanges></Clock>\n,v4_BCL_bal-10-1,60.001,1.0.0.222,1,951752358,2.0.10.242,2.0.10.242,12-10-2014,12/10/2014 5:30:27 PM,12:30:27,2.0.10.147,69,,,,,,15,1,15,,,,2,,,b,,0.247,,,8.13,,,29.52,,,,,,TrialProc1,,,,vowel 1,vowel 2,1,53,276728,Block2,b2_f0_8_13_f2_29_52_dur_0_247_num_377.wav,,,,
v4_BCL_bal,10,1,<?xml version="1.0"?>\n<Clock xmlns:dt="urn:schemas-microsoft-com:datatypes"><Description dt:dt="string">E-Prime Primary Realtime Clock</Description><StartTime><Timestamp dt:dt="int">0</Timestamp><DateUtc dt:dt="string">2014-12-10T17:30:26Z</DateUtc></StartTime><FrequencyChanges><FrequencyChange><Frequency dt:dt="r8">2327530000</Frequency><Timestamp dt:dt="r8">1048467676746</Timestamp><Current dt:dt="r8">0</Current><DateUtc dt:dt="string">2014-12-10T17:30:26Z</DateUtc></FrequencyChange></FrequencyChanges></Clock>\n,v4_BCL_bal-10-1,60.001,1.0.0.222,1,951752358,2.0.10.242,2.0.10.242,12-10-2014,12/10/2014 5:30:27 PM,12:30:27,2.0.10.147,70,,,,,,16,1,16,,,,2,,,b,,0.249,,,8.46,,,29.86,,,,,,TrialProc1,,,,vowel 1,vowel 2,1,35,277577,Block2,b2_f0_8_46_f2_29_86_dur_0_249_num_388.wav,,,,
v4_BCL_bal,10,1,<?xml version="1.0"?>\n<Clock xmlns:dt="urn:schemas-microsoft-com:datatypes"><Description dt:dt="string">E-Prime Primary Realtime Clock</Description><StartTime><Timestamp dt:dt="int">0</Timestamp><DateUtc dt:dt="string">2014-12-10T17:30:26Z</DateUtc></StartTime><FrequencyChanges><FrequencyChange><Frequency dt:dt="r8">2327530000</Frequency><Timestamp dt:dt="r8">1048467676746</Timestamp><Current dt:dt="r8">0</Current><DateUtc dt:dt="string">2014-12-10T17:30:26Z</DateUtc></FrequencyChange></FrequencyChanges></Clock>\n,v4_BCL_bal-10-1,60.001,1.0.0.222,1,951752358,2.0.10.242,2.0.10.242,12-10-2014,12/10/2014 5:30:27 PM,12:30:27,2.0.10.147,71,,,,,,17,1,17,,,,1,,,b,,0.257,,,9.5,,,31.28,,,,,,TrialProc1,,,,vowel 1,vowel 2,2,759,279151,Block2,b1_f0_9_50_f2_31_28_dur_0_257_num_9.wav,,,,
v4_BCL_bal,10,1,<?xml version="1.0"?>\n<Clock xmlns:dt="urn:schemas-microsoft-com:datatypes"><Description dt:dt="string">E-Prime Primary Realtime Clock</Description><StartTime><Timestamp dt:dt="int">0</Timestamp><DateUtc dt:dt="string">2014-12-10T17:30:26Z</DateUtc></StartTime><FrequencyChanges><FrequencyChange><Frequency dt:dt="r8">2327530000</Frequency><Timestamp dt:dt="r8">1048467676746</Timestamp><Current dt:dt="r8">0</Current><DateUtc dt:dt="string">2014-12-10T17:30:26Z</DateUtc></FrequencyChange></FrequencyChanges></Clock>\n,v4_BCL_bal-10-1,60.001,1.0.0.222,1,951752358,2.0.10.242,2.0.10.242,12-10-2014,12/10/2014 5:30:27 PM,12:30:27,2.0.10.147,72,,,,,,18,1,18,,,,2,,,b,,0.25,,,8.63,,,29.93,,,,,,TrialProc1,,,,vowel 1,vowel 2,1,785,280744,Block2,b2_f0_8_63_f2_29_93_dur_0_250_num_305.wav,,,,
v4_BCL_bal,10,1,<?xml version="1.0"?>\n<Clock xmlns:dt="urn:schemas-microsoft-com:datatypes"><Description dt:dt="string">E-Prime Primary Realtime Clock</Description><StartTime><Timestamp dt:dt="int">0</Timestamp><DateUtc dt:dt="string">2014-12-10T17:30:26Z</DateUtc></StartTime><FrequencyChanges><FrequencyChange><Frequency dt:dt="r8">2327530000</Frequency><Timestamp dt:dt="r8">1048467676746</Timestamp><Current dt:dt="r8">0</Current><DateUtc dt:dt="string">2014-12-10T17:30:26Z</DateUtc></FrequencyChange></FrequencyChanges></Clock>\n,v4_BCL_bal-10-1,60.001,1.0.0.222,1,951752358,2.0.10.242,2.0.10.242,12-10-2014,12/10/2014 5:30:27 PM,12:30:27,2.0.10.147,73,,,,,,19,1,19,,,,2,,,b,,0.254,,,8.23,,,29.96,,,,,,TrialProc1,,,,vowel 1,vowel 2,1,939,282514,Block2,b2_f0_8_23_f2_29_96_dur_0_254_num_378.wav,,,,
v4_BCL_bal,10,1,<?xml version="1.0"?>\n<Clock xmlns:dt="urn:schemas-microsoft-com:datatypes"><Description dt:dt="string">E-Prime Primary Realtime Clock</Description><StartTime><Timestamp dt:dt="int">0</Timestamp><DateUtc dt:dt="string">2014-12-10T17:30:26Z</DateUtc></StartTime><FrequencyChanges><FrequencyChange><Frequency dt:dt="r8">2327530000</Frequency><Timestamp dt:dt="r8">1048467676746</Timestamp><Current dt:dt="r8">0</Current><DateUtc dt:dt="string">2014-12-10T17:30:26Z</DateUtc></FrequencyChange></FrequencyChanges></Clock>\n,v4_BCL_bal-10-1,60.001,1.0.0.222,1,951752358,2.0.10.242,2.0.10.242,12-10-2014,12/10/2014 5:30:27 PM,12:30:27,2.0.10.147,74,,,,,,20,1,20,,,,1,,,b,,0.246,,,9.88,,,30.44,,,,,,TrialProc1,,,,vowel 1,vowel 2,1,494,283819,Block2,b1_f0_9_88_f2_30_44_dur_0_246_num_83.wav,,,,
v4_BCL_bal,10,1,<?xml version="1.0"?>\n<Clock xmlns:dt="urn:schemas-microsoft-com:datatypes"><Description dt:dt="string">E-Prime Primary Realtime Clock</Description><StartTime><Timestamp dt:dt="int">0</Timestamp><DateUtc dt:dt="string">2014-12-10T17:30:26Z</DateUtc></StartTime><FrequencyChanges><FrequencyChange><Frequency dt:dt="r8">2327530000</Frequency><Timestamp dt:dt="r8">1048467676746</Timestamp><Current dt:dt="r8">0</Current><DateUtc dt:dt="string">2014-12-10T17:30:26Z</DateUtc></FrequencyChange></FrequencyChanges></Clock>\n,v4_BCL_bal-10-1,60.001,1.0.0.222,1,951752358,2.0.10.242,2.0.10.242,12-10-2014,12/10/2014 5:30:27 PM,12:30:27,2.0.10.147,75,,,,,,21,1,21,,,,1,,,b,,0.25,,,10.99,,,28.85,,,,,,TrialProc1,,,,vowel 1,vowel 2,1,39,284664,Block2,b1_f0_10_99_f2_28_85_dur_0_250_num_60.wav,,,,
v4_BCL_bal,10,1,<?xml version="1.0"?>\n<Clock xmlns:dt="urn:schemas-microsoft-com:datatypes"><Description dt:dt="string">E-Prime Primary Realtime Clock</Description><StartTime><Timestamp dt:dt="int">0</Timestamp><DateUtc dt:dt="string">2014-12-10T17:30:26Z</DateUtc></StartTime><FrequencyChanges><FrequencyChange><Frequency dt:dt="r8">2327530000</Frequency><Timestamp dt:dt="r8">1048467676746</Timestamp><Current dt:dt="r8">0</Current><DateUtc dt:dt="string">2014-12-10T17:30:26Z</DateUtc></FrequencyChange></FrequencyChanges></Clock>\n,v4_BCL_bal-10-1,60.001,1.0.0.222,1,951752358,2.0.10.242,2.0.10.242,12-10-2014,12/10/2014 5:30:27 PM,12:30:27,2.0.10.147,76,,,,,,22,1,22,,,,1,,,b,,0.253,,,9.89,,,30.89,,,,,,TrialProc1,,,,vowel 1,vowel 2,1,597,286072,Block2,b1_f0_9_89_f2_30_89_dur_0_253_num_45.wav,,,,
v4_BCL_bal,10,1,<?xml version="1.0"?>\n<Clock xmlns:dt="urn:schemas-microsoft-com:datatypes"><Description dt:dt="string">E-Prime Primary Realtime Clock</Description><StartTime><Timestamp dt:dt="int">0</Timestamp><DateUtc dt:dt="string">2014-12-10T17:30:26Z</DateUtc></StartTime><FrequencyChanges><FrequencyChange><Frequency dt:dt="r8">2327530000</Frequency><Timestamp dt:dt="r8">1048467676746</Timestamp><Current dt:dt="r8">0</Current><DateUtc dt:dt="string">2014-12-10T17:30:26Z</DateUtc></FrequencyChange></FrequencyChanges></Clock>\n,v4_BCL_bal-10-1,60.001,1.0.0.222,1,951752358,2.0.10.242,2.0.10.242,12-10-2014,12/10/2014 5:30:27 PM,12:30:27,2.0.10.147,77,,,,,,23,1,23,,,,2,,,b,,0.251,,,8.33,,,29.18,,,,,,TrialProc1,,,,vowel 1,vowel 2,1,506,287398,Block2,b2_f0_8_33_f2_29_18_dur_0_251_num_331.wav,,,,
v4_BCL_bal,10,1,<?xml version="1.0"?>\n<Clock xmlns:dt="urn:schemas-microsoft-com:datatypes"><Description dt:dt="string">E-Prime Primary Realtime Clock</Description><StartTime><Timestamp dt:dt="int">0</Timestamp><DateUtc dt:dt="string">2014-12-10T17:30:26Z</DateUtc></StartTime><FrequencyChanges><FrequencyChange><Frequency dt:dt="r8">2327530000</Frequency><Timestamp dt:dt="r8">1048467676746</Timestamp><Current dt:dt="r8">0</Current><DateUtc dt:dt="string">2014-12-10T17:30:26Z</DateUtc></FrequencyChange></FrequencyChanges></Clock>\n,v4_BCL_bal-10-1,60.001,1.0.0.222,1,951752358,2.0.10.242,2.0.10.242,12-10-2014,12/10/2014 5:30:27 PM,12:30:27,2.0.10.147,78,,,,,,24,1,24,,,,2,,,b,,0.246,,,8.62,,,30.07,,,,,,TrialProc1,,,,vowel 1,vowel 2,1,372,288597,Block2,b2_f0_8_62_f2_30_07_dur_0_246_num_340.wav,,,,
v4_BCL_bal,10,1,<?xml version="1.0"?>\n<Clock xmlns:dt="urn:schemas-microsoft-com:datatypes"><Description dt:dt="string">E-Prime Primary Realtime Clock</Description><StartTime><Timestamp dt:dt="int">0</Timestamp><DateUtc dt:dt="string">2014-12-10T17:30:26Z</DateUtc></StartTime><FrequencyChanges><FrequencyChange><Frequency dt:dt="r8">2327530000</Frequency><Timestamp dt:dt="r8">1048467676746</Timestamp><Current dt:dt="r8">0</Current><DateUtc dt:dt="string">2014-12-10T17:30:26Z</DateUtc></FrequencyChange></FrequencyChanges></Clock>\n,v4_BCL_bal-10-1,60.001,1.0.0.222,1,951752358,2.0.10.242,2.0.10.242,12-10-2014,12/10/2014 5:30:27 PM,12:30:27,2.0.10.147,79,,,,,,25,1,25,,,,1,,,b,,0.255,,,9.72,,,30.13,,,,,,TrialProc1,,,,vowel 1,vowel 2,1,95,289520,Block2,b1_f0_9_72_f2_30_13_dur_0_255_num_88.wav,,,,
v4_BCL_bal,10,1,<?xml version="1.0"?>\n<Clock xmlns:dt="urn:schemas-microsoft-com:datatypes"><Description dt:dt="string">E-Prime Primary Realtime Clock</Description><StartTime><Timestamp dt:dt="int">0</Timestamp><DateUtc dt:dt="string">2014-12-10T17:30:26Z</DateUtc></StartTime><FrequencyChanges><FrequencyChange><Frequency dt:dt="r8">2327530000</Frequency><Timestamp dt:dt="r8">1048467676746</Timestamp><Current dt:dt="r8">0</Current><DateUtc dt:dt="string">2014-12-10T17:30:26Z</DateUtc></FrequencyChange></FrequencyChanges></Clock>\n,v4_BCL_bal-10-1,60.001,1.0.0.222,1,951752358,2.0.10.242,2.0.10.242,12-10-2014,12/10/2014 5:30:27 PM,12:30:27,2.0.10.147,80,,,,,,26,1,26,,,,2,,,b,,0.255,,,9.22,,,29.03,,,,,,TrialProc1,,,,vowel 1,vowel 2,1,13,290355,Block2,b2_f0_9_22_f2_29_03_dur_0_255_num_395.wav,,,,
v4_BCL_bal,10,1,<?xml version="1.0"?>\n<Clock xmlns:dt="urn:schemas-microsoft-com:datatypes"><Description dt:dt="string">E-Prime Primary Realtime Clock</Description><StartTime><Timestamp dt:dt="int">0</Timestamp><DateUtc dt:dt="string">2014-12-10T17:30:26Z</DateUtc></StartTime><FrequencyChanges><FrequencyChange><Frequency dt:dt="r8">2327530000</Frequency><Timestamp dt:dt="r8">1048467676746</Timestamp><Current dt:dt="r8">0</Current><DateUtc dt:dt="string">2014-12-10T17:30:26Z</DateUtc></FrequencyChange></FrequencyChanges></Clock>\n,v4_BCL_bal-10-1,60.001,1.0.0.222,1,951752358,2.0.10.242,2.0.10.242,12-10-2014,12/10/2014 5:30:27 PM,12:30:27,2.0.10.147,81,,,,,,27,1,27,,,,1,,,b,,0.253,,,10.13,,,30.31,,,,,,TrialProc1,,,,vowel 1,vowel 2,2,573,291731,Block2,b1_f0_10_13_f2_30_31_dur_0_253_num_66.wav,,,,
v4_BCL_bal,10,1,<?xml version="1.0"?>\n<Clock xmlns:dt="urn:schemas-microsoft-com:datatypes"><Description dt:dt="string">E-Prime Primary Realtime Clock</Description><StartTime><Timestamp dt:dt="int">0</Timestamp><DateUtc dt:dt="string">2014-12-10T17:30:26Z</DateUtc></StartTime><FrequencyChanges><FrequencyChange><Frequency dt:dt="r8">2327530000</Frequency><Timestamp dt:dt="r8">1048467676746</Timestamp><Current dt:dt="r8">0</Current><DateUtc dt:dt="string">2014-12-10T17:30:26Z</DateUtc></FrequencyChange></FrequencyChanges></Clock>\n,v4_BCL_bal-10-1,60.001,1.0.0.222,1,951752358,2.0.10.242,2.0.10.242,12-10-2014,12/10/2014 5:30:27 PM,12:30:27,2.0.10.147,82,,,,,,28,1,28,,,,1,,,b,,0.252,,,10.3,,,30.18,,,,,,TrialProc1,,,,vowel 1,vowel 2,1,31,292573,Block2,b1_f0_10_30_f2_30_18_dur_0_252_num_53.wav,,,,
v4_BCL_bal,10,1,<?xml version="1.0"?>\n<Clock xmlns:dt="urn:schemas-microsoft-com:datatypes"><Description dt:dt="string">E-Prime Primary Realtime Clock</Description><StartTime><Timestamp dt:dt="int">0</Timestamp><DateUtc dt:dt="string">2014-12-10T17:30:26Z</DateUtc></StartTime><FrequencyChanges><FrequencyChange><Frequency dt:dt="r8">2327530000</Frequency><Timestamp dt:dt="r8">1048467676746</Timestamp><Current dt:dt="r8">0</Current><DateUtc dt:dt="string">2014-12-10T17:30:26Z</DateUtc></FrequencyChange></FrequencyChanges></Clock>\n,v4_BCL_bal-10-1,60.001,1.0.0.222,1,951752358,2.0.10.242,2.0.10.242,12-10-2014,12/10/2014 5:30:27 PM,12:30:27,2.0.10.147,83,,,,,,29,1,29,,,,2,,,b,,0.249,,,8.3,,,29.3,,,,,,TrialProc1,,,,vowel 1,vowel 2,1,45,293420,Block2,b2_f0_8_30_f2_29_30_dur_0_249_num_342.wav,,,,
v4_BCL_bal,10,1,<?xml version="1.0"?>\n<Clock xmlns:dt="urn:schemas-microsoft-com:datatypes"><Description dt:dt="string">E-Prime Primary Realtime Clock</Description><StartTime><Timestamp dt:dt="int">0</Timestamp><DateUtc dt:dt="string">2014-12-10T17:30:26Z</DateUtc></StartTime><FrequencyChanges><FrequencyChange><Frequency dt:dt="r8">2327530000</Frequency><Timestamp dt:dt="r8">1048467676746</Timestamp><Current dt:dt="r8">0</Current><DateUtc dt:dt="string">2014-12-10T17:30:26Z</DateUtc></FrequencyChange></FrequencyChanges></Clock>\n,v4_BCL_bal-10-1,60.001,1.0.0.222,1,951752358,2.0.10.242,2.0.10.242,12-10-2014,12/10/2014 5:30:27 PM,12:30:27,2.0.10.147,84,,,,,,30,1,30,,,,2,,,b,,0.25,,,8.6,,,30.41,,,,,,TrialProc1,,,,vowel 1,vowel 2,1,461,294686,Block2,b2_f0_8_60_f2_30_41_dur_0_250_num_330.wav,,,,
v4_BCL_bal,10,1,<?xml version="1.0"?>\n<Clock xmlns:dt="urn:schemas-microsoft-com:datatypes"><Description dt:dt="string">E-Prime Primary Realtime Clock</Description><StartTime><Timestamp dt:dt="int">0</Timestamp><DateUtc dt:dt="string">2014-12-10T17:30:26Z</DateUtc></StartTime><FrequencyChanges><FrequencyChange><Frequency dt:dt="r8">2327530000</Frequency><Timestamp dt:dt="r8">1048467676746</Timestamp><Current dt:dt="r8">0</Current><DateUtc dt:dt="string">2014-12-10T17:30:26Z</DateUtc></FrequencyChange></FrequencyChanges></Clock>\n,v4_BCL_bal-10-1,60.001,1.0.0.222,1,951752358,2.0.10.242,2.0.10.242,12-10-2014,12/10/2014 5:30:27 PM,12:30:27,2.0.10.147,85,,,,,,31,1,31,,,,1,,,b,,0.249,,,9.56,,,30.68,,,,,,TrialProc1,,,,vowel 1,vowel 2,1,357,295849,Block2,b1_f0_9_56_f2_30_68_dur_0_249_num_68.wav,,,,
v4_BCL_bal,10,1,<?xml version="1.0"?>\n<Clock xmlns:dt="urn:schemas-microsoft-com:datatypes"><Description dt:dt="string">E-Prime Primary Realtime Clock</Description><StartTime><Timestamp dt:dt="int">0</Timestamp><DateUtc dt:dt="string">2014-12-10T17:30:26Z</DateUtc></StartTime><FrequencyChanges><FrequencyChange><Frequency dt:dt="r8">2327530000</Frequency><Timestamp dt:dt="r8">1048467676746</Timestamp><Current dt:dt="r8">0</Current><DateUtc dt:dt="string">2014-12-10T17:30:26Z</DateUtc></FrequencyChange></FrequencyChanges></Clock>\n,v4_BCL_bal-10-1,60.001,1.0.0.222,1,951752358,2.0.10.242,2.0.10.242,12-10-2014,12/10/2014 5:30:27 PM,12:30:27,2.0.10.147,86,,,,,,32,1,32,,,,1,,,b,,0.247,,,10.87,,,29.46,,,,,,TrialProc1,,,,vowel 1,vowel 2,1,36,296694,Block2,b1_f0_10_87_f2_29_46_dur_0_247_num_67.wav,,,,
v4_BCL_bal,10,1,<?xml version="1.0"?>\n<Clock xmlns:dt="urn:schemas-microsoft-com:datatypes"><Description dt:dt="string">E-Prime Primary Realtime Clock</Description><StartTime><Timestamp dt:dt="int">0</Timestamp><DateUtc dt:dt="string">2014-12-10T17:30:26Z</DateUtc></StartTime><FrequencyChanges><FrequencyChange><Frequency dt:dt="r8">2327530000</Frequency><Timestamp dt:dt="r8">1048467676746</Timestamp><Current dt:dt="r8">0</Current><DateUtc dt:dt="string">2014-12-10T17:30:26Z</DateUtc></FrequencyChange></FrequencyChanges></Clock>\n,v4_BCL_bal-10-1,60.001,1.0.0.222,1,951752358,2.0.10.242,2.0.10.242,12-10-2014,12/10/2014 5:30:27 PM,12:30:27,2.0.10.147,87,,,,,,33,1,33,,,,1,,,b,,0.249,,,9.79,,,30.55,,,,,,TrialProc1,,,,vowel 1,vowel 2,1,691,298199,Block2,b1_f0_9_79_f2_30_55_dur_0_249_num_18.wav,,,,
v4_BCL_bal,10,1,<?xml version="1.0"?>\n<Clock xmlns:dt="urn:schemas-microsoft-com:datatypes"><Description dt:dt="string">E-Prime Primary Realtime Clock</Description><StartTime><Timestamp dt:dt="int">0</Timestamp><DateUtc dt:dt="string">2014-12-10T17:30:26Z</DateUtc></StartTime><FrequencyChanges><FrequencyChange><Frequency dt:dt="r8">2327530000</Frequency><Timestamp dt:dt="r8">1048467676746</Timestamp><Current dt:dt="r8">0</Current><DateUtc dt:dt="string">2014-12-10T17:30:26Z</DateUtc></FrequencyChange></FrequencyChanges></Clock>\n,v4_BCL_bal-10-1,60.001,1.0.0.222,1,951752358,2.0.10.242,2.0.10.242,12-10-2014,12/10/2014 5:30:27 PM,12:30:27,2.0.10.147,88,,,,,,34,1,34,,,,2,,,b,,0.251,,,8.25,,,30.93,,,,,,TrialProc1,,,,vowel 1,vowel 2,1,367,299375,Block2,b2_f0_8_25_f2_30_93_dur_0_251_num_393.wav,,,,
v4_BCL_bal,10,1,<?xml version="1.0"?>\n<Clock xmlns:dt="urn:schemas-microsoft-com:datatypes"><Description dt:dt="string">E-Prime Primary Realtime Clock</Description><StartTime><Timestamp dt:dt="int">0</Timestamp><DateUtc dt:dt="string">2014-12-10T17:30:26Z</DateUtc></StartTime><FrequencyChanges><FrequencyChange><Frequency dt:dt="r8">2327530000</Frequency><Timestamp dt:dt="r8">1048467676746</Timestamp><Current dt:dt="r8">0</Current><DateUtc dt:dt="string">2014-12-10T17:30:26Z</DateUtc></FrequencyChange></FrequencyChanges></Clock>\n,v4_BCL_bal-10-1,60.001,1.0.0.222,1,951752358,2.0.10.242,2.0.10.242,12-10-2014,12/10/2014 5:30:27 PM,12:30:27,2.0.10.147,89,,,,,,35,1,35,,,,2,,,b,,0.248,,,8.61,,,29.69,,,,,,TrialProc1,,,,vowel 1,vowel 2,2,736,300928,Block2,b2_f0_8_61_f2_29_69_dur_0_248_num_326.wav,,,,
v4_BCL_bal,10,1,<?xml version="1.0"?>\n<Clock xmlns:dt="urn:schemas-microsoft-com:datatypes"><Description dt:dt="string">E-Prime Primary Realtime Clock</Description><StartTime><Timestamp dt:dt="int">0</Timestamp><DateUtc dt:dt="string">2014-12-10T17:30:26Z</DateUtc></StartTime><FrequencyChanges><FrequencyChange><Frequency dt:dt="r8">2327530000</Frequency><Timestamp dt:dt="r8">1048467676746</Timestamp><Current dt:dt="r8">0</Current><DateUtc dt:dt="string">2014-12-10T17:30:26Z</DateUtc></FrequencyChange></FrequencyChanges></Clock>\n,v4_BCL_bal-10-1,60.001,1.0.0.222,1,951752358,2.0.10.242,2.0.10.242,12-10-2014,12/10/2014 5:30:27 PM,12:30:27,2.0.10.147,90,,,,,,36,1,36,,,,1,,,b,,0.249,,,9.86,,,29.93,,,,,,TrialProc1,,,,vowel 1,vowel 2,1,703,302445,Block2,b1_f0_9_86_f2_29_93_dur_0_249_num_4.wav,,,,
v4_BCL_bal,10,1,<?xml version="1.0"?>\n<Clock xmlns:dt="urn:schemas-microsoft-com:datatypes"><Description dt:dt="string">E-Prime Primary Realtime Clock</Description><StartTime><Timestamp dt:dt="int">0</Timestamp><DateUtc dt:dt="string">2014-12-10T17:30:26Z</DateUtc></StartTime><FrequencyChanges><FrequencyChange><Frequency dt:dt="r8">2327530000</Frequency><Timestamp dt:dt="r8">1048467676746</Timestamp><Current dt:dt="r8">0</Current><DateUtc dt:dt="string">2014-12-10T17:30:26Z</DateUtc></FrequencyChange></FrequencyChanges></Clock>\n,v4_BCL_bal-10-1,60.001,1.0.0.222,1,951752358,2.0.10.242,2.0.10.242,12-10-2014,12/10/2014 5:30:27 PM,12:30:27,2.0.10.147,91,,,,,,37,1,37,,,,2,,,b,,0.259,,,8.72,,,29.36,,,,,,TrialProc1,,,,vowel 1,vowel 2,,0,0,Block2,b2_f0_8_72_f2_29_36_dur_0_259_num_313.wav,,,,
v4_BCL_bal,10,1,<?xml version="1.0"?>\n<Clock xmlns:dt="urn:schemas-microsoft-com:datatypes"><Description dt:dt="string">E-Prime Primary Realtime Clock</Description><StartTime><Timestamp dt:dt="int">0</Timestamp><DateUtc dt:dt="string">2014-12-10T17:30:26Z</DateUtc></StartTime><FrequencyChanges><FrequencyChange><Frequency dt:dt="r8">2327530000</Frequency><Timestamp dt:dt="r8">1048467676746</Timestamp><Current dt:dt="r8">0</Current><DateUtc dt:dt="string">2014-12-10T17:30:26Z</DateUtc></FrequencyChange></FrequencyChanges></Clock>\n,v4_BCL_bal-10-1,60.001,1.0.0.222,1,951752358,2.0.10.242,2.0.10.242,12-10-2014,12/10/2014 5:30:27 PM,12:30:27,2.0.10.147,92,,,,,,38,1,38,,,,1,,,b,,0.248,,,10.22,,,29.89,,,,,,TrialProc1,,,,vowel 1,vowel 2,2,1009,306567,Block2,b1_f0_10_22_f2_29_89_dur_0_248_num_25.wav,,,,
v4_BCL_bal,10,1,<?xml version="1.0"?>\n<Clock xmlns:dt="urn:schemas-microsoft-com:datatypes"><Description dt:dt="string">E-Prime Primary Realtime Clock</Description><StartTime><Timestamp dt:dt="int">0</Timestamp><DateUtc dt:dt="string">2014-12-10T17:30:26Z</DateUtc></StartTime><FrequencyChanges><FrequencyChange><Frequency dt:dt="r8">2327530000</Frequency><Timestamp dt:dt="r8">1048467676746</Timestamp><Current dt:dt="r8">0</Current><DateUtc dt:dt="string">2014-12-10T17:30:26Z</DateUtc></FrequencyChange></FrequencyChanges></Clock>\n,v4_BCL_bal-10-1,60.001,1.0.0.222,1,951752358,2.0.10.242,2.0.10.242,12-10-2014,12/10/2014 5:30:27 PM,12:30:27,2.0.10.147,93,,,,,,39,1,39,,,,2,,,b,,0.255,,,9.33,,,28.39,,,,,,TrialProc1,,,,vowel 1,vowel 2,1,270,307645,Block2,b2_f0_9_33_f2_28_39_dur_0_255_num_341.wav,,,,
v4_BCL_bal,10,1,<?xml version="1.0"?>\n<Clock xmlns:dt="urn:schemas-microsoft-com:datatypes"><Description dt:dt="string">E-Prime Primary Realtime Clock</Description><StartTime><Timestamp dt:dt="int">0</Timestamp><DateUtc dt:dt="string">2014-12-10T17:30:26Z</DateUtc></StartTime><FrequencyChanges><FrequencyChange><Frequency dt:dt="r8">2327530000</Frequency><Timestamp dt:dt="r8">1048467676746</Timestamp><Current dt:dt="r8">0</Current><DateUtc dt:dt="string">2014-12-10T17:30:26Z</DateUtc></FrequencyChange></FrequencyChanges></Clock>\n,v4_BCL_bal-10-1,60.001,1.0.0.222,1,951752358,2.0.10.242,2.0.10.242,12-10-2014,12/10/2014 5:30:27 PM,12:30:27,2.0.10.147,94,,,,,,40,1,40,,,,2,,,b,,0.252,,,9.44,,,29.1,,,,,,TrialProc1,,,,vowel 1,vowel 2,1,192,308650,Block2,b2_f0_9_44_f2_29_10_dur_0_252_num_367.wav,,,,
v4_BCL_bal,10,1,<?xml version="1.0"?>\n<Clock xmlns:dt="urn:schemas-microsoft-com:datatypes"><Description dt:dt="string">E-Prime Primary Realtime Clock</Description><StartTime><Timestamp dt:dt="int">0</Timestamp><DateUtc dt:dt="string">2014-12-10T17:30:26Z</DateUtc></StartTime><FrequencyChanges><FrequencyChange><Frequency dt:dt="r8">2327530000</Frequency><Timestamp dt:dt="r8">1048467676746</Timestamp><Current dt:dt="r8">0</Current><DateUtc dt:dt="string">2014-12-10T17:30:26Z</DateUtc></FrequencyChange></FrequencyChanges></Clock>\n,v4_BCL_bal-10-1,60.001,1.0.0.222,1,951752358,2.0.10.242,2.0.10.242,12-10-2014,12/10/2014 5:30:27 PM,12:30:27,2.0.10.147,95,,,,,,41,1,41,,,,2,,,b,,0.251,,,9.97,,,28.14,,,,,,TrialProc1,,,,vowel 1,vowel 2,1,389,309847,Block2,b2_f0_9_97_f2_28_14_dur_0_251_num_302.wav,,,,
v4_BCL_bal,10,1,<?xml version="1.0"?>\n<Clock xmlns:dt="urn:schemas-microsoft-com:datatypes"><Description dt:dt="string">E-Prime Primary Realtime Clock</Description><StartTime><Timestamp dt:dt="int">0</Timestamp><DateUtc dt:dt="string">2014-12-10T17:30:26Z</DateUtc></StartTime><FrequencyChanges><FrequencyChange><Frequency dt:dt="r8">2327530000</Frequency><Timestamp dt:dt="r8">1048467676746</Timestamp><Current dt:dt="r8">0</Current><DateUtc dt:dt="string">2014-12-10T17:30:26Z</DateUtc></FrequencyChange></FrequencyChanges></Clock>\n,v4_BCL_bal-10-1,60.001,1.0.0.222,1,951752358,2.0.10.242,2.0.10.242,12-10-2014,12/10/2014 5:30:27 PM,12:30:27,2.0.10.147,96,,,,,,42,1,42,,,,1,,,b,,0.254,,,10.65,,,30.2,,,,,,TrialProc1,,,,vowel 1,vowel 2,1,111,310769,Block2,b1_f0_10_65_f2_30_20_dur_0_254_num_10.wav,,,,
v4_BCL_bal,10,1,<?xml version="1.0"?>\n<Clock xmlns:dt="urn:schemas-microsoft-com:datatypes"><Description dt:dt="string">E-Prime Primary Realtime Clock</Description><StartTime><Timestamp dt:dt="int">0</Timestamp><DateUtc dt:dt="string">2014-12-10T17:30:26Z</DateUtc></StartTime><FrequencyChanges><FrequencyChange><Frequency dt:dt="r8">2327530000</Frequency><Timestamp dt:dt="r8">1048467676746</Timestamp><Current dt:dt="r8">0</Current><DateUtc dt:dt="string">2014-12-10T17:30:26Z</DateUtc></FrequencyChange></FrequencyChanges></Clock>\n,v4_BCL_bal-10-1,60.001,1.0.0.222,1,951752358,2.0.10.242,2.0.10.242,12-10-2014,12/10/2014 5:30:27 PM,12:30:27,2.0.10.147,97,,,,,,43,1,43,,,,1,,,b,,0.248,,,10.55,,,29.48,,,,,,TrialProc1,,,,vowel 1,vowel 2,1,680,312271,Block2,b1_f0_10_55_f2_29_48_dur_0_248_num_41.wav,,,,
v4_BCL_bal,10,1,<?xml version="1.0"?>\n<Clock xmlns:dt="urn:schemas-microsoft-com:datatypes"><Description dt:dt="string">E-Prime Primary Realtime Clock</Description><StartTime><Timestamp dt:dt="int">0</Timestamp><DateUtc dt:dt="string">2014-12-10T17:30:26Z</DateUtc></StartTime><FrequencyChanges><FrequencyChange><Frequency dt:dt="r8">2327530000</Frequency><Timestamp dt:dt="r8">1048467676746</Timestamp><Current dt:dt="r8">0</Current><DateUtc dt:dt="string">2014-12-10T17:30:26Z</DateUtc></FrequencyChange></FrequencyChanges></Clock>\n,v4_BCL_bal-10-1,60.001,1.0.0.222,1,951752358,2.0.10.242,2.0.10.242,12-10-2014,12/10/2014 5:30:27 PM,12:30:27,2.0.10.147,98,,,,,,44,1,44,,,,1,,,b,,0.255,,,10.17,,,30.05,,,,,,TrialProc1,,,,vowel 1,vowel 2,1,184,313259,Block2,b1_f0_10_17_f2_30_05_dur_0_255_num_15.wav,,,,
v4_BCL_bal,10,1,<?xml version="1.0"?>\n<Clock xmlns:dt="urn:schemas-microsoft-com:datatypes"><Description dt:dt="string">E-Prime Primary Realtime Clock</Description><StartTime><Timestamp dt:dt="int">0</Timestamp><DateUtc dt:dt="string">2014-12-10T17:30:26Z</DateUtc></StartTime><FrequencyChanges><FrequencyChange><Frequency dt:dt="r8">2327530000</Frequency><Timestamp dt:dt="r8">1048467676746</Timestamp><Current dt:dt="r8">0</Current><DateUtc dt:dt="string">2014-12-10T17:30:26Z</DateUtc></FrequencyChange></FrequencyChanges></Clock>\n,v4_BCL_bal-10-1,60.001,1.0.0.222,1,951752358,2.0.10.242,2.0.10.242,12-10-2014,12/10/2014 5:30:27 PM,12:30:27,2.0.10.147,99,,,,,,45,1,45,,,,2,,,b,,0.256,,,7.87,,,30.39,,,,,,TrialProc1,,,,vowel 1,vowel 2,2,860,314935,Block2,b2_f0_7_87_f2_30_39_dur_0_256_num_336.wav,,,,
v4_BCL_bal,10,1,<?xml version="1.0"?>\n<Clock xmlns:dt="urn:schemas-microsoft-com:datatypes"><Description dt:dt="string">E-Prime Primary Realtime Clock</Description><StartTime><Timestamp dt:dt="int">0</Timestamp><DateUtc dt:dt="string">2014-12-10T17:30:26Z</DateUtc></StartTime><FrequencyChanges><FrequencyChange><Frequency dt:dt="r8">2327530000</Frequency><Timestamp dt:dt="r8">1048467676746</Timestamp><Current dt:dt="r8">0</Current><DateUtc dt:dt="string">2014-12-10T17:30:26Z</DateUtc></FrequencyChange></FrequencyChanges></Clock>\n,v4_BCL_bal-10-1,60.001,1.0.0.222,1,951752358,2.0.10.242,2.0.10.242,12-10-2014,12/10/2014 5:30:27 PM,12:30:27,2.0.10.147,100,,,,,,46,1,46,,,,2,,,b,,0.245,,,8.53,,,29.14,,,,,,TrialProc1,,,,vowel 1,vowel 2,1,107,315848,Block2,b2_f0_8_53_f2_29_14_dur_0_245_num_397.wav,,,,
v4_BCL_bal,10,1,<?xml version="1.0"?>\n<Clock xmlns:dt="urn:schemas-microsoft-com:datatypes"><Description dt:dt="string">E-Prime Primary Realtime Clock</Description><StartTime><Timestamp dt:dt="int">0</Timestamp><DateUtc dt:dt="string">2014-12-10T17:30:26Z</DateUtc></StartTime><FrequencyChanges><FrequencyChange><Frequency dt:dt="r8">2327530000</Frequency><Timestamp dt:dt="r8">1048467676746</Timestamp><Current dt:dt="r8">0</Current><DateUtc dt:dt="string">2014-12-10T17:30:26Z</DateUtc></FrequencyChange></FrequencyChanges></Clock>\n,v4_BCL_bal-10-1,60.001,1.0.0.222,1,951752358,2.0.10.242,2.0.10.242,12-10-2014,12/10/2014 5:30:27 PM,12:30:27,2.0.10.147,101,,,,,,47,1,47,,,,2,,,b,,0.253,,,7.89,,,30.49,,,,,,TrialProc1,,,,vowel 1,vowel 2,1,74,316732,Block2,b2_f0_7_89_f2_30_49_dur_0_253_num_307.wav,,,,
v4_BCL_bal,10,1,<?xml version="1.0"?>\n<Clock xmlns:dt="urn:schemas-microsoft-com:datatypes"><Description dt:dt="string">E-Prime Primary Realtime Clock</Description><StartTime><Timestamp dt:dt="int">0</Timestamp><DateUtc dt:dt="string">2014-12-10T17:30:26Z</DateUtc></StartTime><FrequencyChanges><FrequencyChange><Frequency dt:dt="r8">2327530000</Frequency><Timestamp dt:dt="r8">1048467676746</Timestamp><Current dt:dt="r8">0</Current><DateUtc dt:dt="string">2014-12-10T17:30:26Z</DateUtc></FrequencyChange></FrequencyChanges></Clock>\n,v4_BCL_bal-10-1,60.001,1.0.0.222,1,951752358,2.0.10.242,2.0.10.242,12-10-2014,12/10/2014 5:30:27 PM,12:30:27,2.0.10.147,102,,,,,,48,1,48,,,,2,,,b,,0.251,,,8.59,,,29.18,,,,,,TrialProc1,,,,vowel 1,vowel 2,1,210,317751,Block2,b2_f0_8_59_f2_29_18_dur_0_251_num_391.wav,,,,
v4_BCL_bal,10,1,<?xml version="1.0"?>\n<Clock xmlns:dt="urn:schemas-microsoft-com:datatypes"><Description dt:dt="string">E-Prime Primary Realtime Clock</Description><StartTime><Timestamp dt:dt="int">0</Timestamp><DateUtc dt:dt="string">2014-12-10T17:30:26Z</DateUtc></StartTime><FrequencyChanges><FrequencyChange><Frequency dt:dt="r8">2327530000</Frequency><Timestamp dt:dt="r8">1048467676746</Timestamp><Current dt:dt="r8">0</Current><DateUtc dt:dt="string">2014-12-10T17:30:26Z</DateUtc></FrequencyChange></FrequencyChanges></Clock>\n,v4_BCL_bal-10-1,60.001,1.0.0.222,1,951752358,2.0.10.242,2.0.10.242,12-10-2014,12/10/2014 5:30:27 PM,12:30:27,2.0.10.147,103,,,,,,49,1,49,,,,2,,,b,,0.241,,,7.74,,,29.89,,,,,,TrialProc1,,,,vowel 1,vowel 2,1,192,318750,Block2,b2_f0_7_74_f2_29_89_dur_0_241_num_320.wav,,,,
v4_BCL_bal,10,1,<?xml version="1.0"?>\n<Clock xmlns:dt="urn:schemas-microsoft-com:datatypes"><Description dt:dt="string">E-Prime Primary Realtime Clock</Description><StartTime><Timestamp dt:dt="int">0</Timestamp><DateUtc dt:dt="string">2014-12-10T17:30:26Z</DateUtc></StartTime><FrequencyChanges><FrequencyChange><Frequency dt:dt="r8">2327530000</Frequency><Timestamp dt:dt="r8">1048467676746</Timestamp><Current dt:dt="r8">0</Current><DateUtc dt:dt="string">2014-12-10T17:30:26Z</DateUtc></FrequencyChange></FrequencyChanges></Clock>\n,v4_BCL_bal-10-1,60.001,1.0.0.222,1,951752358,2.0.10.242,2.0.10.242,12-10-2014,12/10/2014 5:30:27 PM,12:30:27,2.0.10.147,104,,,,,,50,1,50,,,,1,,,b,,0.249,,,11.09,,,30.08,,,,,,TrialProc1,,,,vowel 1,vowel 2,1,858,320416,Block2,b1_f0_11_09_f2_30_08_dur_0_249_num_20.wav,,,,
v4_BCL_bal,10,1,<?xml version="1.0"?>\n<Clock xmlns:dt="urn:schemas-microsoft-com:datatypes"><Description dt:dt="string">E-Prime Primary Realtime Clock</Description><StartTime><Timestamp dt:dt="int">0</Timestamp><DateUtc dt:dt="string">2014-12-10T17:30:26Z</DateUtc></StartTime><FrequencyChanges><FrequencyChange><Frequency dt:dt="r8">2327530000</Frequency><Timestamp dt:dt="r8">1048467676746</Timestamp><Current dt:dt="r8">0</Current><DateUtc dt:dt="string">2014-12-10T17:30:26Z</DateUtc></FrequencyChange></FrequencyChanges></Clock>\n,v4_BCL_bal-10-1,60.001,1.0.0.222,1,951752358,2.0.10.242,2.0.10.242,12-10-2014,12/10/2014 5:30:27 PM,12:30:27,2.0.10.147,105,,,,,,51,1,51,,,,2,,,b,,0.251,,,9.16,,,28.7,,,,,,TrialProc1,,,,vowel 1,vowel 2,1,101,321342,Block2,b2_f0_9_16_f2_28_70_dur_0_251_num_321.wav,,,,
v4_BCL_bal,10,1,<?xml version="1.0"?>\n<Clock xmlns:dt="urn:schemas-microsoft-com:datatypes"><Description dt:dt="string">E-Prime Primary Realtime Clock</Description><StartTime><Timestamp dt:dt="int">0</Timestamp><DateUtc dt:dt="string">2014-12-10T17:30:26Z</DateUtc></StartTime><FrequencyChanges><FrequencyChange><Frequency dt:dt="r8">2327530000</Frequency><Timestamp dt:dt="r8">1048467676746</Timestamp><Current dt:dt="r8">0</Current><DateUtc dt:dt="string">2014-12-10T17:30:26Z</DateUtc></FrequencyChange></FrequencyChanges></Clock>\n,v4_BCL_bal-10-1,60.001,1.0.0.222,1,951752358,2.0.10.242,2.0.10.242,12-10-2014,12/10/2014 5:30:27 PM,12:30:27,2.0.10.147,106,,,,,,52,1,52,,,,1,,,b,,0.248,,,10.26,,,29.48,,,,,,TrialProc1,,,,vowel 1,vowel 2,1,85,322243,Block2,b1_f0_10_26_f2_29_48_dur_0_248_num_29.wav,,,,
v4_BCL_bal,10,1,<?xml version="1.0"?>\n<Clock xmlns:dt="urn:schemas-microsoft-com:datatypes"><Description dt:dt="string">E-Prime Primary Realtime Clock</Description><StartTime><Timestamp dt:dt="int">0</Timestamp><DateUtc dt:dt="string">2014-12-10T17:30:26Z</DateUtc></StartTime><FrequencyChanges><FrequencyChange><Frequency dt:dt="r8">2327530000</Frequency><Timestamp dt:dt="r8">1048467676746</Timestamp><Current dt:dt="r8">0</Current><DateUtc dt:dt="string">2014-12-10T17:30:26Z</DateUtc></FrequencyChange></FrequencyChanges></Clock>\n,v4_BCL_bal-10-1,60.001,1.0.0.222,1,951752358,2.0.10.242,2.0.10.242,12-10-2014,12/10/2014 5:30:27 PM,12:30:27,2.0.10.147,107,,,,,,53,1,53,,,,2,,,b,,0.243,,,8.94,,,28.29,,,,,,TrialProc1,,,,vowel 1,vowel 2,1,132,323190,Block2,b2_f0_8_94_f2_28_29_dur_0_243_num_315.wav,,,,
v4_BCL_bal,10,1,<?xml version="1.0"?>\n<Clock xmlns:dt="urn:schemas-microsoft-com:datatypes"><Description dt:dt="string">E-Prime Primary Realtime Clock</Description><StartTime><Timestamp dt:dt="int">0</Timestamp><DateUtc dt:dt="string">2014-12-10T17:30:26Z</DateUtc></StartTime><FrequencyChanges><FrequencyChange><Frequency dt:dt="r8">2327530000</Frequency><Timestamp dt:dt="r8">1048467676746</Timestamp><Current dt:dt="r8">0</Current><DateUtc dt:dt="string">2014-12-10T17:30:26Z</DateUtc></FrequencyChange></FrequencyChanges></Clock>\n,v4_BCL_bal-10-1,60.001,1.0.0.222,1,951752358,2.0.10.242,2.0.10.242,12-10-2014,12/10/2014 5:30:27 PM,12:30:27,2.0.10.147,108,,,,,,54,1,54,,,,2,,,b,,0.249,,,8.06,,,30.83,,,,,,TrialProc1,,,,vowel 1,vowel 2,1,197,324188,Block2,b2_f0_8_06_f2_30_83_dur_0_249_num_368.wav,,,,
v4_BCL_bal,10,1,<?xml version="1.0"?>\n<Clock xmlns:dt="urn:schemas-microsoft-com:datatypes"><Description dt:dt="string">E-Prime Primary Realtime Clock</Description><StartTime><Timestamp dt:dt="int">0</Timestamp><DateUtc dt:dt="string">2014-12-10T17:30:26Z</DateUtc></StartTime><FrequencyChanges><FrequencyChange><Frequency dt:dt="r8">2327530000</Frequency><Timestamp dt:dt="r8">1048467676746</Timestamp><Current dt:dt="r8">0</Current><DateUtc dt:dt="string">2014-12-10T17:30:26Z</DateUtc></FrequencyChange></FrequencyChanges></Clock>\n,v4_BCL_bal-10-1,60.001,1.0.0.222,1,951752358,2.0.10.242,2.0.10.242,12-10-2014,12/10/2014 5:30:27 PM,12:30:27,2.0.10.147,109,,,,,,55,1,55,,,,1,,,b,,0.245,,,9.62,,,30.72,,,,,,TrialProc1,,,,vowel 1,vowel 2,1,149,325140,Block2,b1_f0_9_62_f2_30_72_dur_0_245_num_43.wav,,,,
v4_BCL_bal,10,1,<?xml version="1.0"?>\n<Clock xmlns:dt="urn:schemas-microsoft-com:datatypes"><Description dt:dt="string">E-Prime Primary Realtime Clock</Description><StartTime><Timestamp dt:dt="int">0</Timestamp><DateUtc dt:dt="string">2014-12-10T17:30:26Z</DateUtc></StartTime><FrequencyChanges><FrequencyChange><Frequency dt:dt="r8">2327530000</Frequency><Timestamp dt:dt="r8">1048467676746</Timestamp><Current dt:dt="r8">0</Current><DateUtc dt:dt="string">2014-12-10T17:30:26Z</DateUtc></FrequencyChange></FrequencyChanges></Clock>\n,v4_BCL_bal-10-1,60.001,1.0.0.222,1,951752358,2.0.10.242,2.0.10.242,12-10-2014,12/10/2014 5:30:27 PM,12:30:27,2.0.10.147,110,,,,,,56,1,56,,,,1,,,b,,0.247,,,10.5,,,30.4,,,,,,TrialProc1,,,,vowel 1,vowel 2,1,1468,327426,Block2,b1_f0_10_50_f2_30_40_dur_0_247_num_17.wav,,,,
v4_BCL_bal,10,1,<?xml version="1.0"?>\n<Clock xmlns:dt="urn:schemas-microsoft-com:datatypes"><Description dt:dt="string">E-Prime Primary Realtime Clock</Description><StartTime><Timestamp dt:dt="int">0</Timestamp><DateUtc dt:dt="string">2014-12-10T17:30:26Z</DateUtc></StartTime><FrequencyChanges><FrequencyChange><Frequency dt:dt="r8">2327530000</Frequency><Timestamp dt:dt="r8">1048467676746</Timestamp><Current dt:dt="r8">0</Current><DateUtc dt:dt="string">2014-12-10T17:30:26Z</DateUtc></FrequencyChange></FrequencyChanges></Clock>\n,v4_BCL_bal-10-1,60.001,1.0.0.222,1,951752358,2.0.10.242,2.0.10.242,12-10-2014,12/10/2014 5:30:27 PM,12:30:27,2.0.10.147,111,,,,,,57,1,57,,,,2,,,b,,0.252,,,9.2,,,29.29,,,,,,TrialProc1,,,,vowel 1,vowel 2,1,294,328535,Block2,b2_f0_9_20_f2_29_29_dur_0_252_num_375.wav,,,,
v4_BCL_bal,10,1,<?xml version="1.0"?>\n<Clock xmlns:dt="urn:schemas-microsoft-com:datatypes"><Description dt:dt="string">E-Prime Primary Realtime Clock</Description><StartTime><Timestamp dt:dt="int">0</Timestamp><DateUtc dt:dt="string">2014-12-10T17:30:26Z</DateUtc></StartTime><FrequencyChanges><FrequencyChange><Frequency dt:dt="r8">2327530000</Frequency><Timestamp dt:dt="r8">1048467676746</Timestamp><Current dt:dt="r8">0</Current><DateUtc dt:dt="string">2014-12-10T17:30:26Z</DateUtc></FrequencyChange></FrequencyChanges></Clock>\n,v4_BCL_bal-10-1,60.001,1.0.0.222,1,951752358,2.0.10.242,2.0.10.242,12-10-2014,12/10/2014 5:30:27 PM,12:30:27,2.0.10.147,112,,,,,,58,1,58,,,,1,,,b,,0.255,,,10.76,,,29.21,,,,,,TrialProc1,,,,vowel 1,vowel 2,1,116,329474,Block2,b1_f0_10_76_f2_29_21_dur_0_255_num_12.wav,,,,
v4_BCL_bal,10,1,<?xml version="1.0"?>\n<Clock xmlns:dt="urn:schemas-microsoft-com:datatypes"><Description dt:dt="string">E-Prime Primary Realtime Clock</Description><StartTime><Timestamp dt:dt="int">0</Timestamp><DateUtc dt:dt="string">2014-12-10T17:30:26Z</DateUtc></StartTime><FrequencyChanges><FrequencyChange><Frequency dt:dt="r8">2327530000</Frequency><Timestamp dt:dt="r8">1048467676746</Timestamp><Current dt:dt="r8">0</Current><DateUtc dt:dt="string">2014-12-10T17:30:26Z</DateUtc></FrequencyChange></FrequencyChanges></Clock>\n,v4_BCL_bal-10-1,60.001,1.0.0.222,1,951752358,2.0.10.242,2.0.10.242,12-10-2014,12/10/2014 5:30:27 PM,12:30:27,2.0.10.147,113,,,,,,59,1,59,,,,1,,,b,,0.251,,,9.81,,,30.83,,,,,,TrialProc1,,,,vowel 1,vowel 2,1,357,330648,Block2,b1_f0_9_81_f2_30_83_dur_0_251_num_87.wav,,,,
v4_BCL_bal,10,1,<?xml version="1.0"?>\n<Clock xmlns:dt="urn:schemas-microsoft-com:datatypes"><Description dt:dt="string">E-Prime Primary Realtime Clock</Description><StartTime><Timestamp dt:dt="int">0</Timestamp><DateUtc dt:dt="string">2014-12-10T17:30:26Z</DateUtc></StartTime><FrequencyChanges><FrequencyChange><Frequency dt:dt="r8">2327530000</Frequency><Timestamp dt:dt="r8">1048467676746</Timestamp><Current dt:dt="r8">0</Current><DateUtc dt:dt="string">2014-12-10T17:30:26Z</DateUtc></FrequencyChange></FrequencyChanges></Clock>\n,v4_BCL_bal-10-1,60.001,1.0.0.222,1,951752358,2.0.10.242,2.0.10.242,12-10-2014,12/10/2014 5:30:27 PM,12:30:27,2.0.10.147,114,,,,,,60,1,60,,,,1,,,b,,0.248,,,9.87,,,30.04,,,,,,TrialProc1,,,,vowel 1,vowel 2,1,278,331736,Block2,b1_f0_9_87_f2_30_04_dur_0_248_num_64.wav,,,,
v4_BCL_bal,10,1,<?xml version="1.0"?>\n<Clock xmlns:dt="urn:schemas-microsoft-com:datatypes"><Description dt:dt="string">E-Prime Primary Realtime Clock</Description><StartTime><Timestamp dt:dt="int">0</Timestamp><DateUtc dt:dt="string">2014-12-10T17:30:26Z</DateUtc></StartTime><FrequencyChanges><FrequencyChange><Frequency dt:dt="r8">2327530000</Frequency><Timestamp dt:dt="r8">1048467676746</Timestamp><Current dt:dt="r8">0</Current><DateUtc dt:dt="string">2014-12-10T17:30:26Z</DateUtc></FrequencyChange></FrequencyChanges></Clock>\n,v4_BCL_bal-10-1,60.001,1.0.0.222,1,951752358,2.0.10.242,2.0.10.242,12-10-2014,12/10/2014 5:30:27 PM,12:30:27,2.0.10.147,115,,,,,,61,1,61,,,,1,,,b,,0.254,,,10.54,,,30.53,,,,,,TrialProc1,,,,vowel 1,vowel 2,1,344,332885,Block2,b1_f0_10_54_f2_30_53_dur_0_254_num_30.wav,,,,
v4_BCL_bal,10,1,<?xml version="1.0"?>\n<Clock xmlns:dt="urn:schemas-microsoft-com:datatypes"><Description dt:dt="string">E-Prime Primary Realtime Clock</Description><StartTime><Timestamp dt:dt="int">0</Timestamp><DateUtc dt:dt="string">2014-12-10T17:30:26Z</DateUtc></StartTime><FrequencyChanges><FrequencyChange><Frequency dt:dt="r8">2327530000</Frequency><Timestamp dt:dt="r8">1048467676746</Timestamp><Current dt:dt="r8">0</Current><DateUtc dt:dt="string">2014-12-10T17:30:26Z</DateUtc></FrequencyChange></FrequencyChanges></Clock>\n,v4_BCL_bal-10-1,60.001,1.0.0.222,1,951752358,2.0.10.242,2.0.10.242,12-10-2014,12/10/2014 5:30:27 PM,12:30:27,2.0.10.147,116,,,,,,62,1,62,,,,1,,,b,,0.252,,,10.32,,,30.55,,,,,,TrialProc1,,,,vowel 1,vowel 2,2,5,333696,Block2,b1_f0_10_32_f2_30_55_dur_0_252_num_85.wav,,,,
v4_BCL_bal,10,1,<?xml version="1.0"?>\n<Clock xmlns:dt="urn:schemas-microsoft-com:datatypes"><Description dt:dt="string">E-Prime Primary Realtime Clock</Description><StartTime><Timestamp dt:dt="int">0</Timestamp><DateUtc dt:dt="string">2014-12-10T17:30:26Z</DateUtc></StartTime><FrequencyChanges><FrequencyChange><Frequency dt:dt="r8">2327530000</Frequency><Timestamp dt:dt="r8">1048467676746</Timestamp><Current dt:dt="r8">0</Current><DateUtc dt:dt="string">2014-12-10T17:30:26Z</DateUtc></FrequencyChange></FrequencyChanges></Clock>\n,v4_BCL_bal-10-1,60.001,1.0.0.222,1,951752358,2.0.10.242,2.0.10.242,12-10-2014,12/10/2014 5:30:27 PM,12:30:27,2.0.10.147,117,,,,,,63,1,63,,,,1,,,b,,0.25,,,10.2,,,30.57,,,,,,TrialProc1,,,,vowel 1,vowel 2,1,478,334986,Block2,b1_f0_10_20_f2_30_57_dur_0_250_num_78.wav,,,,
v4_BCL_bal,10,1,<?xml version="1.0"?>\n<Clock xmlns:dt="urn:schemas-microsoft-com:datatypes"><Description dt:dt="string">E-Prime Primary Realtime Clock</Description><StartTime><Timestamp dt:dt="int">0</Timestamp><DateUtc dt:dt="string">2014-12-10T17:30:26Z</DateUtc></StartTime><FrequencyChanges><FrequencyChange><Frequency dt:dt="r8">2327530000</Frequency><Timestamp dt:dt="r8">1048467676746</Timestamp><Current dt:dt="r8">0</Current><DateUtc dt:dt="string">2014-12-10T17:30:26Z</DateUtc></FrequencyChange></FrequencyChanges></Clock>\n,v4_BCL_bal-10-1,60.001,1.0.0.222,1,951752358,2.0.10.242,2.0.10.242,12-10-2014,12/10/2014 5:30:27 PM,12:30:27,2.0.10.147,118,,,,,,64,1,64,,,,1,,,b,,0.245,,,9.91,,,29.99,,,,,,TrialProc1,,,,vowel 1,vowel 2,,0,0,Block2,b1_f0_9_91_f2_29_99_dur_0_245_num_6.wav,,,,
v4_BCL_bal,10,1,<?xml version="1.0"?>\n<Clock xmlns:dt="urn:schemas-microsoft-com:datatypes"><Description dt:dt="string">E-Prime Primary Realtime Clock</Description><StartTime><Timestamp dt:dt="int">0</Timestamp><DateUtc dt:dt="string">2014-12-10T17:30:26Z</DateUtc></StartTime><FrequencyChanges><FrequencyChange><Frequency dt:dt="r8">2327530000</Frequency><Timestamp dt:dt="r8">1048467676746</Timestamp><Current dt:dt="r8">0</Current><DateUtc dt:dt="string">2014-12-10T17:30:26Z</DateUtc></FrequencyChange></FrequencyChanges></Clock>\n,v4_BCL_bal-10-1,60.001,1.0.0.222,1,951752358,2.0.10.242,2.0.10.242,12-10-2014,12/10/2014 5:30:27 PM,12:30:27,2.0.10.147,119,,,,,,65,1,65,,,,1,,,b,,0.254,,,9.64,,,31,,,,,,TrialProc1,,,,vowel 1,vowel 2,1,668,338759,Block2,b1_f0_9_64_f2_31_00_dur_0_254_num_51.wav,,,,
v4_BCL_bal,10,1,<?xml version="1.0"?>\n<Clock xmlns:dt="urn:schemas-microsoft-com:datatypes"><Description dt:dt="string">E-Prime Primary Realtime Clock</Description><StartTime><Timestamp dt:dt="int">0</Timestamp><DateUtc dt:dt="string">2014-12-10T17:30:26Z</DateUtc></StartTime><FrequencyChanges><FrequencyChange><Frequency dt:dt="r8">2327530000</Frequency><Timestamp dt:dt="r8">1048467676746</Timestamp><Current dt:dt="r8">0</Current><DateUtc dt:dt="string">2014-12-10T17:30:26Z</DateUtc></FrequencyChange></FrequencyChanges></Clock>\n,v4_BCL_bal-10-1,60.001,1.0.0.222,1,951752358,2.0.10.242,2.0.10.242,12-10-2014,12/10/2014 5:30:27 PM,12:30:27,2.0.10.147,120,,,,,,66,1,66,,,,1,,,b,,0.252,,,9.6,,,30.9,,,,,,TrialProc1,,,,vowel 1,vowel 2,1,1167,340741,Block2,b1_f0_9_60_f2_30_90_dur_0_252_num_59.wav,,,,
v4_BCL_bal,10,1,<?xml version="1.0"?>\n<Clock xmlns:dt="urn:schemas-microsoft-com:datatypes"><Description dt:dt="string">E-Prime Primary Realtime Clock</Description><StartTime><Timestamp dt:dt="int">0</Timestamp><DateUtc dt:dt="string">2014-12-10T17:30:26Z</DateUtc></StartTime><FrequencyChanges><FrequencyChange><Frequency dt:dt="r8">2327530000</Frequency><Timestamp dt:dt="r8">1048467676746</Timestamp><Current dt:dt="r8">0</Current><DateUtc dt:dt="string">2014-12-10T17:30:26Z</DateUtc></FrequencyChange></FrequencyChanges></Clock>\n,v4_BCL_bal-10-1,60.001,1.0.0.222,1,951752358,2.0.10.242,2.0.10.242,12-10-2014,12/10/2014 5:30:27 PM,12:30:27,2.0.10.147,121,,,,,,67,1,67,,,,1,,,b,,0.251,,,10.13,,,29.5,,,,,,TrialProc1,,,,vowel 1,vowel 2,1,172,341746,Block2,b1_f0_10_13_f2_29_50_dur_0_251_num_31.wav,,,,
v4_BCL_bal,10,1,<?xml version="1.0"?>\n<Clock xmlns:dt="urn:schemas-microsoft-com:datatypes"><Description dt:dt="string">E-Prime Primary Realtime Clock</Description><StartTime><Timestamp dt:dt="int">0</Timestamp><DateUtc dt:dt="string">2014-12-10T17:30:26Z</DateUtc></StartTime><FrequencyChanges><FrequencyChange><Frequency dt:dt="r8">2327530000</Frequency><Timestamp dt:dt="r8">1048467676746</Timestamp><Current dt:dt="r8">0</Current><DateUtc dt:dt="string">2014-12-10T17:30:26Z</DateUtc></FrequencyChange></FrequencyChanges></Clock>\n,v4_BCL_bal-10-1,60.001,1.0.0.222,1,951752358,2.0.10.242,2.0.10.242,12-10-2014,12/10/2014 5:30:27 PM,12:30:27,2.0.10.147,122,,,,,,68,1,68,,,,2,,,b,,0.249,,,8.9,,,29.84,,,,,,TrialProc1,,,,vowel 1,vowel 2,1,164,342738,Block2,b2_f0_8_90_f2_29_84_dur_0_249_num_394.wav,,,,
v4_BCL_bal,10,1,<?xml version="1.0"?>\n<Clock xmlns:dt="urn:schemas-microsoft-com:datatypes"><Description dt:dt="string">E-Prime Primary Realtime Clock</Description><StartTime><Timestamp dt:dt="int">0</Timestamp><DateUtc dt:dt="string">2014-12-10T17:30:26Z</DateUtc></StartTime><FrequencyChanges><FrequencyChange><Frequency dt:dt="r8">2327530000</Frequency><Timestamp dt:dt="r8">1048467676746</Timestamp><Current dt:dt="r8">0</Current><DateUtc dt:dt="string">2014-12-10T17:30:26Z</DateUtc></FrequencyChange></FrequencyChanges></Clock>\n,v4_BCL_bal-10-1,60.001,1.0.0.222,1,951752358,2.0.10.242,2.0.10.242,12-10-2014,12/10/2014 5:30:27 PM,12:30:27,2.0.10.147,123,,,,,,69,1,69,,,,1,,,b,,0.257,,,9.39,,,30.85,,,,,,TrialProc1,,,,vowel 1,vowel 2,1,584,344125,Block2,b1_f0_9_39_f2_30_85_dur_0_257_num_65.wav,,,,
v4_BCL_bal,10,1,<?xml version="1.0"?>\n<Clock xmlns:dt="urn:schemas-microsoft-com:datatypes"><Description dt:dt="string">E-Prime Primary Realtime Clock</Description><StartTime><Timestamp dt:dt="int">0</Timestamp><DateUtc dt:dt="string">2014-12-10T17:30:26Z</DateUtc></StartTime><FrequencyChanges><FrequencyChange><Frequency dt:dt="r8">2327530000</Frequency><Timestamp dt:dt="r8">1048467676746</Timestamp><Current dt:dt="r8">0</Current><DateUtc dt:dt="string">2014-12-10T17:30:26Z</DateUtc></FrequencyChange></FrequencyChanges></Clock>\n,v4_BCL_bal-10-1,60.001,1.0.0.222,1,951752358,2.0.10.242,2.0.10.242,12-10-2014,12/10/2014 5:30:27 PM,12:30:27,2.0.10.147,124,,,,,,70,1,70,,,,2,,,b,,0.251,,,9.39,,,28.73,,,,,,TrialProc1,,,,vowel 1,vowel 2,1,122,345063,Block2,b2_f0_9_39_f2_28_73_dur_0_251_num_329.wav,,,,
