ExperimentName,Subject,Session,Clock.Information,DataFile.Basename,Display.RefreshRate,ExperimentVersion,Group,RandomSeed,RuntimeVersion,RuntimeVersionExpected,SessionDate,SessionStartDateTimeUtc,SessionTime,StudioVersion,Block,A,B,Block1,Block1.Cycle,Block1.Sample,Block2,Block2.Cycle,Block2.Sample,Block3,Block3.Cycle,Block3.Sample,cat,catA,catB,cons,correct_resp,dur,durA,durB,f0,f0A,f0B,f2,f2A,f2B,PracticeList,PracticeList.Cycle,PracticeList.Sample,Procedure,resp.CRESP,resp.RESP,resp.RT,resp1,resp2,respond.RESP,respond.RT,respond.RTTime,Running,soundfile,testList,testList.Cycle,testList.Sample,X
v4_BCL_f0,1,1,<?xml version="1.0"?>\n<Clock xmlns:dt="urn:schemas-microsoft-com:datatypes"><Description dt:dt="string">E-Prime Primary Realtime Clock</Description><StartTime><Timestamp dt:dt="int">0</Timestamp><DateUtc dt:dt="string">2014-09-15T18:40:51Z</DateUtc></StartTime><FrequencyChanges><FrequencyChange><Frequency dt:dt="r8">2327520000</Frequency><Timestamp dt:dt="r8">1593067813995</Timestamp><Current dt:dt="r8">0</Current><DateUtc dt:dt="string">2014-09-15T18:40:51Z</DateUtc></FrequencyChange></FrequencyChanges></Clock>\n,v4_BCL_f0-1-1,60.001,1.0.0.210,1,102995802,2.0.10.242,2.0.10.242,09-15-2014,9/15/2014 6:40:52 PM,14:40:52,2.0.10.147,1,,,,,,,,,,,,NA,,,NA,,NA,,,NA,,,NA,,,3,1,1,PracProc,,,,vowel 1,vowel 2,1,1156,26584,PracticeList,tea.wav,,,,
v4_BCL_f0,1,1,<?xml version="1.0"?>\n<Clock xmlns:dt="urn:schemas-microsoft-com:datatypes"><Description dt:dt="string">E-Prime Primary Realtime Clock</Description><StartTime><Timestamp dt:dt="int">0</Timestamp><DateUtc dt:dt="string">2014-09-15T18:40:51Z</DateUtc></StartTime><FrequencyChanges><FrequencyChange><Frequency dt:dt="r8">2327520000</Frequency><Timestamp dt:dt="r8">1593067813995</Timestamp><Current dt:dt="r8">0</Current><DateUtc dt:dt="string">2014-09-15T18:40:51Z</DateUtc></FrequencyChange></FrequencyChanges></Clock>\n,v4_BCL_f0-1-1,60.001,1.0.0.210,1,102995802,2.0.10.242,2.0.10.242,09-15-2014,9/15/2014 6:40:52 PM,14:40:52,2.0.10.147,2,,,,,,,,,,,,NA,,,NA,,NA,,,NA,,,NA,,,6,1,2,PracProc,,,,vowel 1,vowel 2,2,393,27904,PracticeList,say.wav,,,,
v4_BCL_f0,1,1,<?xml version="1.0"?>\n<Clock xmlns:dt="urn:schemas-microsoft-com:datatypes"><Description dt:dt="string">E-Prime Primary Realtime Clock</Description><StartTime><Timestamp dt:dt="int">0</Timestamp><DateUtc dt:dt="string">2014-09-15T18:40:51Z</DateUtc></StartTime><FrequencyChanges><FrequencyChange><Frequency dt:dt="r8">2327520000</Frequency><Timestamp dt:dt="r8">1593067813995</Timestamp><Current dt:dt="r8">0</Current><DateUtc dt:dt="string">2014-09-15T18:40:51Z</DateUtc></FrequencyChange></FrequencyChanges></Clock>\n,v4_BCL_f0-1-1,60.001,1.0.0.210,1,102995802,2.0.10.242,2.0.10.242,09-15-2014,9/15/2014 6:40:52 PM,14:40:52,2.0.10.147,3,,,,,,,,,,,,NA,,,NA,,NA,,,NA,,,NA,,,1,1,3,PracProc,,,,vowel 1,vowel 2,1,218,29029,PracticeList,key.wav,,,,
v4_BCL_f0,1,1,<?xml version="1.0"?>\n<Clock xmlns:dt="urn:schemas-microsoft-com:datatypes"><Description dt:dt="string">E-Prime Primary Realtime Clock</Description><StartTime><Timestamp dt:dt="int">0</Timestamp><DateUtc dt:dt="string">2014-09-15T18:40:51Z</DateUtc></StartTime><FrequencyChanges><FrequencyChange><Frequency dt:dt="r8">2327520000</Frequency><Timestamp dt:dt="r8">1593067813995</Timestamp><Current dt:dt="r8">0</Current><DateUtc dt:dt="string">2014-09-15T18:40:51Z</DateUtc></FrequencyChange></FrequencyChanges></Clock>\n,v4_BCL_f0-1-1,60.001,1.0.0.210,1,102995802,2.0.10.242,2.0.10.242,09-15-2014,9/15/2014 6:40:52 PM,14:40:52,2.0.10.147,4,,,,,,,,,,,,NA,,,NA,,NA,,,NA,,,NA,,,5,1,4,PracProc,,,,vowel 1,vowel 2,1,243,30187,PracticeList,see.wav,,,,
v4_BCL_f0,1,1,<?xml version="1.0"?>\n<Clock xmlns:dt="urn:schemas-microsoft-com:datatypes"><Description dt:dt="string">E-Prime Primary Realtime Clock</Description><StartTime><Timestamp dt:dt="int">0</Timestamp><DateUtc dt:dt="string">2014-09-15T18:40:51Z</DateUtc></StartTime><FrequencyChanges><FrequencyChange><Frequency dt:dt="r8">2327520000</Frequency><Timestamp dt:dt="r8">1593067813995</Timestamp><Current dt:dt="r8">0</Current><DateUtc dt:dt="string">2014-09-15T18:40:51Z</DateUtc></FrequencyChange></FrequencyChanges></Clock>\n,v4_BCL_f0-1-1,60.001,1.0.0.210,1,102995802,2.0.10.242,2.0.10.242,09-15-2014,9/15/2014 6:40:52 PM,14:40:52,2.0.10.147,5,,,,,,,,,,,,NA,,,NA,,NA,,,NA,,,NA,,,4,1,5,PracProc,,,,vowel 1,vowel 2,2,218,31329,PracticeList,tay.wav,,,,
v4_BCL_f0,1,1,<?xml version="1.0"?>\n<Clock xmlns:dt="urn:schemas-microsoft-com:datatypes"><Description dt:dt="string">E-Prime Primary Realtime Clock</Description><StartTime><Timestamp dt:dt="int">0</Timestamp><DateUtc dt:dt="string">2014-09-15T18:40:51Z</DateUtc></StartTime><FrequencyChanges><FrequencyChange><Frequency dt:dt="r8">2327520000</Frequency><Timestamp dt:dt="r8">1593067813995</Timestamp><Current dt:dt="r8">0</Current><DateUtc dt:dt="string">2014-09-15T18:40:51Z</DateUtc></FrequencyChange></FrequencyChanges></Clock>\n,v4_BCL_f0-1-1,60.001,1.0.0.210,1,102995802,2.0.10.242,2.0.10.242,09-15-2014,9/15/2014 6:40:52 PM,14:40:52,2.0.10.147,6,,,,,,,,,,,,NA,,,NA,,NA,,,NA,,,NA,,,2,1,6,PracProc,,,,vowel 1,vowel 2,2,214,32458,PracticeList,kay.wav,,,,
v4_BCL_f0,1,1,<?xml version="1.0"?>\n<Clock xmlns:dt="urn:schemas-microsoft-com:datatypes"><Description dt:dt="string">E-Prime Primary Realtime Clock</Description><StartTime><Timestamp dt:dt="int">0</Timestamp><DateUtc dt:dt="string">2014-09-15T18:40:51Z</DateUtc></StartTime><FrequencyChanges><FrequencyChange><Frequency dt:dt="r8">2327520000</Frequency><Timestamp dt:dt="r8">1593067813995</Timestamp><Current dt:dt="r8">0</Current><DateUtc dt:dt="string">2014-09-15T18:40:51Z</DateUtc></FrequencyChange></FrequencyChanges></Clock>\n,v4_BCL_f0-1-1,60.001,1.0.0.210,1,102995802,2.0.10.242,2.0.10.242,09-15-2014,9/15/2014 6:40:52 PM,14:40:52,2.0.10.147,7,,,,,,,,,,,,NA,,,NA,,NA,,,NA,,,NA,,,6,2,7,PracProc,,,,vowel 1,vowel 2,2,299,33677,PracticeList,say.wav,,,,
v4_BCL_f0,1,1,<?xml version="1.0"?>\n<Clock xmlns:dt="urn:schemas-microsoft-com:datatypes"><Description dt:dt="string">E-Prime Primary Realtime Clock</Description><StartTime><Timestamp dt:dt="int">0</Timestamp><DateUtc dt:dt="string">2014-09-15T18:40:51Z</DateUtc></StartTime><FrequencyChanges><FrequencyChange><Frequency dt:dt="r8">2327520000</Frequency><Timestamp dt:dt="r8">1593067813995</Timestamp><Current dt:dt="r8">0</Current><DateUtc dt:dt="string">2014-09-15T18:40:51Z</DateUtc></FrequencyChange></FrequencyChanges></Clock>\n,v4_BCL_f0-1-1,60.001,1.0.0.210,1,102995802,2.0.10.242,2.0.10.242,09-15-2014,9/15/2014 6:40:52 PM,14:40:52,2.0.10.147,8,,,,,,,,,,,,NA,,,NA,,NA,,,NA,,,NA,,,4,2,8,PracProc,,,,vowel 1,vowel 2,2,115,34709,PracticeList,tay.wav,,,,
v4_BCL_f0,1,1,<?xml version="1.0"?>\n<Clock xmlns:dt="urn:schemas-microsoft-com:datatypes"><Description dt:dt="string">E-Prime Primary Realtime Clock</Description><StartTime><Timestamp dt:dt="int">0</Timestamp><DateUtc dt:dt="string">2014-09-15T18:40:51Z</DateUtc></StartTime><FrequencyChanges><FrequencyChange><Frequency dt:dt="r8">2327520000</Frequency><Timestamp dt:dt="r8">1593067813995</Timestamp><Current dt:dt="r8">0</Current><DateUtc dt:dt="string">2014-09-15T18:40:51Z</DateUtc></FrequencyChange></FrequencyChanges></Clock>\n,v4_BCL_f0-1-1,60.001,1.0.0.210,1,102995802,2.0.10.242,2.0.10.242,09-15-2014,9/15/2014 6:40:52 PM,14:40:52,2.0.10.147,9,,,,,,,,,,,,NA,,,NA,,NA,,,NA,,,NA,,,2,2,9,PracProc,,,,vowel 1,vowel 2,2,163,35774,PracticeList,kay.wav,,,,
v4_BCL_f0,1,1,<?xml version="1.0"?>\n<Clock xmlns:dt="urn:schemas-microsoft-com:datatypes"><Description dt:dt="string">E-Prime Primary Realtime Clock</Description><StartTime><Timestamp dt:dt="int">0</Timestamp><DateUtc dt:dt="string">2014-09-15T18:40:51Z</DateUtc></StartTime><FrequencyChanges><FrequencyChange><Frequency dt:dt="r8">2327520000</Frequency><Timestamp dt:dt="r8">1593067813995</Timestamp><Current dt:dt="r8">0</Current><DateUtc dt:dt="string">2014-09-15T18:40:51Z</DateUtc></FrequencyChange></FrequencyChanges></Clock>\n,v4_BCL_f0-1-1,60.001,1.0.0.210,1,102995802,2.0.10.242,2.0.10.242,09-15-2014,9/15/2014 6:40:52 PM,14:40:52,2.0.10.147,10,,,,,,,,,,,,NA,,,NA,,NA,,,NA,,,NA,,,5,2,10,PracProc,,,,vowel 1,vowel 2,1,195,36889,PracticeList,see.wav,,,,
v4_BCL_f0,1,1,<?xml version="1.0"?>\n<Clock xmlns:dt="urn:schemas-microsoft-com:datatypes"><Description dt:dt="string">E-Prime Primary Realtime Clock</Description><StartTime><Timestamp dt:dt="int">0</Timestamp><DateUtc dt:dt="string">2014-09-15T18:40:51Z</DateUtc></StartTime><FrequencyChanges><FrequencyChange><Frequency dt:dt="r8">2327520000</Frequency><Timestamp dt:dt="r8">1593067813995</Timestamp><Current dt:dt="r8">0</Current><DateUtc dt:dt="string">2014-09-15T18:40:51Z</DateUtc></FrequencyChange></FrequencyChanges></Clock>\n,v4_BCL_f0-1-1,60.001,1.0.0.210,1,102995802,2.0.10.242,2.0.10.242,09-15-2014,9/15/2014 6:40:52 PM,14:40:52,2.0.10.147,11,,,,,,,,,,,,NA,,,NA,,NA,,,NA,,,NA,,,3,2,11,PracProc,,,,vowel 1,vowel 2,1,240,38051,PracticeList,tea.wav,,,,
v4_BCL_f0,1,1,<?xml version="1.0"?>\n<Clock xmlns:dt="urn:schemas-microsoft-com:datatypes"><Description dt:dt="string">E-Prime Primary Realtime Clock</Description><StartTime><Timestamp dt:dt="int">0</Timestamp><DateUtc dt:dt="string">2014-09-15T18:40:51Z</DateUtc></StartTime><FrequencyChanges><FrequencyChange><Frequency dt:dt="r8">2327520000</Frequency><Timestamp dt:dt="r8">1593067813995</Timestamp><Current dt:dt="r8">0</Current><DateUtc dt:dt="string">2014-09-15T18:40:51Z</DateUtc></FrequencyChange></FrequencyChanges></Clock>\n,v4_BCL_f0-1-1,60.001,1.0.0.210,1,102995802,2.0.10.242,2.0.10.242,09-15-2014,9/15/2014 6:40:52 PM,14:40:52,2.0.10.147,12,,,,,,,,,,,,NA,,,NA,,NA,,,NA,,,NA,,,1,2,12,PracProc,,,,vowel 1,vowel 2,1,175,39136,PracticeList,key.wav,,,,
v4_BCL_f0,1,1,<?xml version="1.0"?>\n<Clock xmlns:dt="urn:schemas-microsoft-com:datatypes"><Description dt:dt="string">E-Prime Primary Realtime Clock</Description><StartTime><Timestamp dt:dt="int">0</Timestamp><DateUtc dt:dt="string">2014-09-15T18:40:51Z</DateUtc></StartTime><FrequencyChanges><FrequencyChange><Frequency dt:dt="r8">2327520000</Frequency><Timestamp dt:dt="r8">1593067813995</Timestamp><Current dt:dt="r8">0</Current><DateUtc dt:dt="string">2014-09-15T18:40:51Z</DateUtc></FrequencyChange></FrequencyChanges></Clock>\n,v4_BCL_f0-1-1,60.001,1.0.0.210,1,102995802,2.0.10.242,2.0.10.242,09-15-2014,9/15/2014 6:40:52 PM,14:40:52,2.0.10.147,13,,,,,,,,,,,,NA,,,NA,,NA,,,NA,,,NA,,,1,3,13,PracProc,,,,vowel 1,vowel 2,1,180,40224,PracticeList,key.wav,,,,
v4_BCL_f0,1,1,<?xml version="1.0"?>\n<Clock xmlns:dt="urn:schemas-microsoft-com:datatypes"><Description dt:dt="string">E-Prime Primary Realtime Clock</Description><StartTime><Timestamp dt:dt="int">0</Timestamp><DateUtc dt:dt="string">2014-09-15T18:40:51Z</DateUtc></StartTime><FrequencyChanges><FrequencyChange><Frequency dt:dt="r8">2327520000</Frequency><Timestamp dt:dt="r8">1593067813995</Timestamp><Current dt:dt="r8">0</Current><DateUtc dt:dt="string">2014-09-15T18:40:51Z</DateUtc></FrequencyChange></FrequencyChanges></Clock>\n,v4_BCL_f0-1-1,60.001,1.0.0.210,1,102995802,2.0.10.242,2.0.10.242,09-15-2014,9/15/2014 6:40:52 PM,14:40:52,2.0.10.147,14,,,,,,,,,,,,NA,,,NA,,NA,,,NA,,,NA,,,4,3,14,PracProc,,,,vowel 1,vowel 2,2,112,41240,PracticeList,tay.wav,,,,
v4_BCL_f0,1,1,<?xml version="1.0"?>\n<Clock xmlns:dt="urn:schemas-microsoft-com:datatypes"><Description dt:dt="string">E-Prime Primary Realtime Clock</Description><StartTime><Timestamp dt:dt="int">0</Timestamp><DateUtc dt:dt="string">2014-09-15T18:40:51Z</DateUtc></StartTime><FrequencyChanges><FrequencyChange><Frequency dt:dt="r8">2327520000</Frequency><Timestamp dt:dt="r8">1593067813995</Timestamp><Current dt:dt="r8">0</Current><DateUtc dt:dt="string">2014-09-15T18:40:51Z</DateUtc></FrequencyChange></FrequencyChanges></Clock>\n,v4_BCL_f0-1-1,60.001,1.0.0.210,1,102995802,2.0.10.242,2.0.10.242,09-15-2014,9/15/2014 6:40:52 PM,14:40:52,2.0.10.147,15,,,,,,,,,,,,NA,,,NA,,NA,,,NA,,,NA,,,6,3,15,PracProc,,,,vowel 1,vowel 2,2,208,42369,PracticeList,say.wav,,,,
v4_BCL_f0,1,1,<?xml version="1.0"?>\n<Clock xmlns:dt="urn:schemas-microsoft-com:datatypes"><Description dt:dt="string">E-Prime Primary Realtime Clock</Description><StartTime><Timestamp dt:dt="int">0</Timestamp><DateUtc dt:dt="string">2014-09-15T18:40:51Z</DateUtc></StartTime><FrequencyChanges><FrequencyChange><Frequency dt:dt="r8">2327520000</Frequency><Timestamp dt:dt="r8">1593067813995</Timestamp><Current dt:dt="r8">0</Current><DateUtc dt:dt="string">2014-09-15T18:40:51Z</DateUtc></FrequencyChange></FrequencyChanges></Clock>\n,v4_BCL_f0-1-1,60.001,1.0.0.210,1,102995802,2.0.10.242,2.0.10.242,09-15-2014,9/15/2014 6:40:52 PM,14:40:52,2.0.10.147,16,,,,,,,,,,,,NA,,,NA,,NA,,,NA,,,NA,,,2,3,16,PracProc,,,,vowel 1,vowel 2,2,250,43528,PracticeList,kay.wav,,,,
v4_BCL_f0,1,1,<?xml version="1.0"?>\n<Clock xmlns:dt="urn:schemas-microsoft-com:datatypes"><Description dt:dt="string">E-Prime Primary Realtime Clock</Description><StartTime><Timestamp dt:dt="int">0</Timestamp><DateUtc dt:dt="string">2014-09-15T18:40:51Z</DateUtc></StartTime><FrequencyChanges><FrequencyChange><Frequency dt:dt="r8">2327520000</Frequency><Timestamp dt:dt="r8">1593067813995</Timestamp><Current dt:dt="r8">0</Current><DateUtc dt:dt="string">2014-09-15T18:40:51Z</DateUtc></FrequencyChange></FrequencyChanges></Clock>\n,v4_BCL_f0-1-1,60.001,1.0.0.210,1,102995802,2.0.10.242,2.0.10.242,09-15-2014,9/15/2014 6:40:52 PM,14:40:52,2.0.10.147,17,,,,,,,,,,,,NA,,,NA,,NA,,,NA,,,NA,,,3,3,17,PracProc,,,,vowel 1,vowel 2,1,134,44578,PracticeList,tea.wav,,,,
v4_BCL_f0,1,1,<?xml version="1.0"?>\n<Clock xmlns:dt="urn:schemas-microsoft-com:datatypes"><Description dt:dt="string">E-Prime Primary Realtime Clock</Description><StartTime><Timestamp dt:dt="int">0</Timestamp><DateUtc dt:dt="string">2014-09-15T18:40:51Z</DateUtc></StartTime><FrequencyChanges><FrequencyChange><Frequency dt:dt="r8">2327520000</Frequency><Timestamp dt:dt="r8">1593067813995</Timestamp><Current dt:dt="r8">0</Current><DateUtc dt:dt="string">2014-09-15T18:40:51Z</DateUtc></FrequencyChange></FrequencyChanges></Clock>\n,v4_BCL_f0-1-1,60.001,1.0.0.210,1,102995802,2.0.10.242,2.0.10.242,09-15-2014,9/15/2014 6:40:52 PM,14:40:52,2.0.10.147,18,,,,,,,,,,,,NA,,,NA,,NA,,,NA,,,NA,,,5,3,18,PracProc,,,,vowel 1,vowel 2,1,225,45719,PracticeList,see.wav,,,,
v4_BCL_f0,1,1,<?xml version="1.0"?>\n<Clock xmlns:dt="urn:schemas-microsoft-com:datatypes"><Description dt:dt="string">E-Prime Primary Realtime Clock</Description><StartTime><Timestamp dt:dt="int">0</Timestamp><DateUtc dt:dt="string">2014-09-15T18:40:51Z</DateUtc></StartTime><FrequencyChanges><FrequencyChange><Frequency dt:dt="r8">2327520000</Frequency><Timestamp dt:dt="r8">1593067813995</Timestamp><Current dt:dt="r8">0</Current><DateUtc dt:dt="string">2014-09-15T18:40:51Z</DateUtc></FrequencyChange></FrequencyChanges></Clock>\n,v4_BCL_f0-1-1,60.001,1.0.0.210,1,102995802,2.0.10.242,2.0.10.242,09-15-2014,9/15/2014 6:40:52 PM,14:40:52,2.0.10.147,19,,,29,1,1,,,,,,,1,,,g,,0.25,,,9.5,,,29.69,,,,,,ExposureProc,,,,vowel 1,vowel 2,,,,Block1,g1_f0_9_50_f2_29_69_dur_0_250_num_202.wav,,,,
v4_BCL_f0,1,1,<?xml version="1.0"?>\n<Clock xmlns:dt="urn:schemas-microsoft-com:datatypes"><Description dt:dt="string">E-Prime Primary Realtime Clock</Description><StartTime><Timestamp dt:dt="int">0</Timestamp><DateUtc dt:dt="string">2014-09-15T18:40:51Z</DateUtc></StartTime><FrequencyChanges><FrequencyChange><Frequency dt:dt="r8">2327520000</Frequency><Timestamp dt:dt="r8">1593067813995</Timestamp><Current dt:dt="r8">0</Current><DateUtc dt:dt="string">2014-09-15T18:40:51Z</DateUtc></FrequencyChange></FrequencyChanges></Clock>\n,v4_BCL_f0-1-1,60.001,1.0.0.210,1,102995802,2.0.10.242,2.0.10.242,09-15-2014,9/15/2014 6:40:52 PM,14:40:52,2.0.10.147,20,,,17,1,2,,,,,,,2,,,d,,0.247,,,8.04,,,29.55,,,,,,ExposureProc,,,,vowel 1,vowel 2,,,,Block1,d2_f0_8_04_f2_29_55_dur_0_247_num_468.wav,,,,
v4_BCL_f0,1,1,<?xml version="1.0"?>\n<Clock xmlns:dt="urn:schemas-microsoft-com:datatypes"><Description dt:dt="string">E-Prime Primary Realtime Clock</Description><StartTime><Timestamp dt:dt="int">0</Timestamp><DateUtc dt:dt="string">2014-09-15T18:40:51Z</DateUtc></StartTime><FrequencyChanges><FrequencyChange><Frequency dt:dt="r8">2327520000</Frequency><Timestamp dt:dt="r8">1593067813995</Timestamp><Current dt:dt="r8">0</Current><DateUtc dt:dt="string">2014-09-15T18:40:51Z</DateUtc></FrequencyChange></FrequencyChanges></Clock>\n,v4_BCL_f0-1-1,60.001,1.0.0.210,1,102995802,2.0.10.242,2.0.10.242,09-15-2014,9/15/2014 6:40:52 PM,14:40:52,2.0.10.147,21,,,31,1,3,,,,,,,2,,,g,,0.254,,,9.12,,,29,,,,,,ExposureProc,,,,vowel 1,vowel 2,,,,Block1,g2_f0_9_12_f2_29_00_dur_0_254_num_519.wav,,,,
v4_BCL_f0,1,1,<?xml version="1.0"?>\n<Clock xmlns:dt="urn:schemas-microsoft-com:datatypes"><Description dt:dt="string">E-Prime Primary Realtime Clock</Description><StartTime><Timestamp dt:dt="int">0</Timestamp><DateUtc dt:dt="string">2014-09-15T18:40:51Z</DateUtc></StartTime><FrequencyChanges><FrequencyChange><Frequency dt:dt="r8">2327520000</Frequency><Timestamp dt:dt="r8">1593067813995</Timestamp><Current dt:dt="r8">0</Current><DateUtc dt:dt="string">2014-09-15T18:40:51Z</DateUtc></FrequencyChange></FrequencyChanges></Clock>\n,v4_BCL_f0-1-1,60.001,1.0.0.210,1,102995802,2.0.10.242,2.0.10.242,09-15-2014,9/15/2014 6:40:52 PM,14:40:52,2.0.10.147,22,,,30,1,4,,,,,,,1,,,g,,0.251,,,9.11,,,31.59,,,,,,ExposureProc,,,,vowel 1,vowel 2,,,,Block1,g1_f0_9_11_f2_31_59_dur_0_251_num_268.wav,,,,
v4_BCL_f0,1,1,<?xml version="1.0"?>\n<Clock xmlns:dt="urn:schemas-microsoft-com:datatypes"><Description dt:dt="string">E-Prime Primary Realtime Clock</Description><StartTime><Timestamp dt:dt="int">0</Timestamp><DateUtc dt:dt="string">2014-09-15T18:40:51Z</DateUtc></StartTime><FrequencyChanges><FrequencyChange><Frequency dt:dt="r8">2327520000</Frequency><Timestamp dt:dt="r8">1593067813995</Timestamp><Current dt:dt="r8">0</Current><DateUtc dt:dt="string">2014-09-15T18:40:51Z</DateUtc></FrequencyChange></FrequencyChanges></Clock>\n,v4_BCL_f0-1-1,60.001,1.0.0.210,1,102995802,2.0.10.242,2.0.10.242,09-15-2014,9/15/2014 6:40:52 PM,14:40:52,2.0.10.147,23,,,23,1,5,,,,,,,1,,,d,,0.253,,,8.34,,,30.79,,,,,,ExposureProc,,,,vowel 1,vowel 2,,,,Block1,d1_f0_8_34_f2_30_79_dur_0_253_num_131.wav,,,,
v4_BCL_f0,1,1,<?xml version="1.0"?>\n<Clock xmlns:dt="urn:schemas-microsoft-com:datatypes"><Description dt:dt="string">E-Prime Primary Realtime Clock</Description><StartTime><Timestamp dt:dt="int">0</Timestamp><DateUtc dt:dt="string">2014-09-15T18:40:51Z</DateUtc></StartTime><FrequencyChanges><FrequencyChange><Frequency dt:dt="r8">2327520000</Frequency><Timestamp dt:dt="r8">1593067813995</Timestamp><Current dt:dt="r8">0</Current><DateUtc dt:dt="string">2014-09-15T18:40:51Z</DateUtc></FrequencyChange></FrequencyChanges></Clock>\n,v4_BCL_f0-1-1,60.001,1.0.0.210,1,102995802,2.0.10.242,2.0.10.242,09-15-2014,9/15/2014 6:40:52 PM,14:40:52,2.0.10.147,24,,,1,1,6,,,,,,,1,,,b,,0.244,,,10.28,,,30.79,,,,,,ExposureProc,,,,Vowel 1,Vowel 2,,,,Block1,b1_f0_10_28_f2_30_79_dur_0_244_num_6.wav,,,,
v4_BCL_f0,1,1,<?xml version="1.0"?>\n<Clock xmlns:dt="urn:schemas-microsoft-com:datatypes"><Description dt:dt="string">E-Prime Primary Realtime Clock</Description><StartTime><Timestamp dt:dt="int">0</Timestamp><DateUtc dt:dt="string">2014-09-15T18:40:51Z</DateUtc></StartTime><FrequencyChanges><FrequencyChange><Frequency dt:dt="r8">2327520000</Frequency><Timestamp dt:dt="r8">1593067813995</Timestamp><Current dt:dt="r8">0</Current><DateUtc dt:dt="string">2014-09-15T18:40:51Z</DateUtc></FrequencyChange></FrequencyChanges></Clock>\n,v4_BCL_f0-1-1,60.001,1.0.0.210,1,102995802,2.0.10.242,2.0.10.242,09-15-2014,9/15/2014 6:40:52 PM,14:40:52,2.0.10.147,25,,,21,1,7,,,,,,,1,,,d,,0.248,,,9.04,,,30.69,,,,,,ExposureProc,,,,vowel 1,vowel 2,,,,Block1,d1_f0_9_04_f2_30_69_dur_0_248_num_161.wav,,,,
v4_BCL_f0,1,1,<?xml version="1.0"?>\n<Clock xmlns:dt="urn:schemas-microsoft-com:datatypes"><Description dt:dt="string">E-Prime Primary Realtime Clock</Description><StartTime><Timestamp dt:dt="int">0</Timestamp><DateUtc dt:dt="string">2014-09-15T18:40:51Z</DateUtc></StartTime><FrequencyChanges><FrequencyChange><Frequency dt:dt="r8">2327520000</Frequency><Timestamp dt:dt="r8">1593067813995</Timestamp><Current dt:dt="r8">0</Current><DateUtc dt:dt="string">2014-09-15T18:40:51Z</DateUtc></FrequencyChange></FrequencyChanges></Clock>\n,v4_BCL_f0-1-1,60.001,1.0.0.210,1,102995802,2.0.10.242,2.0.10.242,09-15-2014,9/15/2014 6:40:52 PM,14:40:52,2.0.10.147,26,,,14,1,8,,,,,,,2,,,d,,0.248,,,10.11,,,28.03,,,,,,ExposureProc,,,,vowel 1,vowel 2,,,,Block1,d2_f0_10_11_f2_28_03_dur_0_248_num_460.wav,,,,
v4_BCL_f0,1,1,<?xml version="1.0"?>\n<Clock xmlns:dt="urn:schemas-microsoft-com:datatypes"><Description dt:dt="string">E-Prime Primary Realtime Clock</Description><StartTime><Timestamp dt:dt="int">0</Timestamp><DateUtc dt:dt="string">2014-09-15T18:40:51Z</DateUtc></StartTime><FrequencyChanges><FrequencyChange><Frequency dt:dt="r8">2327520000</Frequency><Timestamp dt:dt="r8">1593067813995</Timestamp><Current dt:dt="r8">0</Current><DateUtc dt:dt="string">2014-09-15T18:40:51Z</DateUtc></FrequencyChange></FrequencyChanges></Clock>\n,v4_BCL_f0-1-1,60.001,1.0.0.210,1,102995802,2.0.10.242,2.0.10.242,09-15-2014,9/15/2014 6:40:52 PM,14:40:52,2.0.10.147,27,,,16,1,9,,,,,,,2,,,d,,0.255,,,7.95,,,29.94,,,,,,ExposureProc,,,,vowel 1,vowel 2,,,,Block1,d2_f0_7_95_f2_29_94_dur_0_255_num_429.wav,,,,
v4_BCL_f0,1,1,<?xml version="1.0"?>\n<Clock xmlns:dt="urn:schemas-microsoft-com:datatypes"><Description dt:dt="string">E-Prime Primary Realtime Clock</Description><StartTime><Timestamp dt:dt="int">0</Timestamp><DateUtc dt:dt="string">2014-09-15T18:40:51Z</DateUtc></StartTime><FrequencyChanges><FrequencyChange><Frequency dt:dt="r8">2327520000</Frequency><Timestamp dt:dt="r8">1593067813995</Timestamp><Current dt:dt="r8">0</Current><DateUtc dt:dt="string">2014-09-15T18:40:51Z</DateUtc></FrequencyChange></FrequencyChanges></Clock>\n,v4_BCL_f0-1-1,60.001,1.0.0.210,1,102995802,2.0.10.242,2.0.10.242,09-15-2014,9/15/2014 6:40:52 PM,14:40:52,2.0.10.147,28,,,9,1,10,,,,,,,1,,,b,,0.246,,,10.11,,,30.08,,,,,,ExposureProc,,,,vowel 1,vowel 2,,,,Block1,b1_f0_10_11_f2_30_08_dur_0_246_num_47.wav,,,,
v4_BCL_f0,1,1,<?xml version="1.0"?>\n<Clock xmlns:dt="urn:schemas-microsoft-com:datatypes"><Description dt:dt="string">E-Prime Primary Realtime Clock</Description><StartTime><Timestamp dt:dt="int">0</Timestamp><DateUtc dt:dt="string">2014-09-15T18:40:51Z</DateUtc></StartTime><FrequencyChanges><FrequencyChange><Frequency dt:dt="r8">2327520000</Frequency><Timestamp dt:dt="r8">1593067813995</Timestamp><Current dt:dt="r8">0</Current><DateUtc dt:dt="string">2014-09-15T18:40:51Z</DateUtc></FrequencyChange></FrequencyChanges></Clock>\n,v4_BCL_f0-1-1,60.001,1.0.0.210,1,102995802,2.0.10.242,2.0.10.242,09-15-2014,9/15/2014 6:40:52 PM,14:40:52,2.0.10.147,29,,,24,1,11,,,,,,,2,,,d,,0.256,,,7.69,,,30.74,,,,,,ExposureProc,,,,vowel 1,vowel 2,,,,Block1,d2_f0_7_69_f2_30_74_dur_0_256_num_453.wav,,,,
v4_BCL_f0,1,1,<?xml version="1.0"?>\n<Clock xmlns:dt="urn:schemas-microsoft-com:datatypes"><Description dt:dt="string">E-Prime Primary Realtime Clock</Description><StartTime><Timestamp dt:dt="int">0</Timestamp><DateUtc dt:dt="string">2014-09-15T18:40:51Z</DateUtc></StartTime><FrequencyChanges><FrequencyChange><Frequency dt:dt="r8">2327520000</Frequency><Timestamp dt:dt="r8">1593067813995</Timestamp><Current dt:dt="r8">0</Current><DateUtc dt:dt="string">2014-09-15T18:40:51Z</DateUtc></FrequencyChange></FrequencyChanges></Clock>\n,v4_BCL_f0-1-1,60.001,1.0.0.210,1,102995802,2.0.10.242,2.0.10.242,09-15-2014,9/15/2014 6:40:52 PM,14:40:52,2.0.10.147,30,,,28,1,12,,,,,,,1,,,g,,0.25,,,9.91,,,30.61,,,,,,ExposureProc,,,,vowel 1,vowel 2,,,,Block1,g1_f0_9_91_f2_30_61_dur_0_250_num_275.wav,,,,
v4_BCL_f0,1,1,<?xml version="1.0"?>\n<Clock xmlns:dt="urn:schemas-microsoft-com:datatypes"><Description dt:dt="string">E-Prime Primary Realtime Clock</Description><StartTime><Timestamp dt:dt="int">0</Timestamp><DateUtc dt:dt="string">2014-09-15T18:40:51Z</DateUtc></StartTime><FrequencyChanges><FrequencyChange><Frequency dt:dt="r8">2327520000</Frequency><Timestamp dt:dt="r8">1593067813995</Timestamp><Current dt:dt="r8">0</Current><DateUtc dt:dt="string">2014-09-15T18:40:51Z</DateUtc></FrequencyChange></FrequencyChanges></Clock>\n,v4_BCL_f0-1-1,60.001,1.0.0.210,1,102995802,2.0.10.242,2.0.10.242,09-15-2014,9/15/2014 6:40:52 PM,14:40:52,2.0.10.147,31,,,33,1,13,,,,,,,2,,,g,,0.248,,,8.49,,,29.93,,,,,,ExposureProc,,,,vowel 1,vowel 2,,,,Block1,g2_f0_8_49_f2_29_93_dur_0_248_num_575.wav,,,,
v4_BCL_f0,1,1,<?xml version="1.0"?>\n<Clock xmlns:dt="urn:schemas-microsoft-com:datatypes"><Description dt:dt="string">E-Prime Primary Realtime Clock</Description><StartTime><Timestamp dt:dt="int">0</Timestamp><DateUtc dt:dt="string">2014-09-15T18:40:51Z</DateUtc></StartTime><FrequencyChanges><FrequencyChange><Frequency dt:dt="r8">2327520000</Frequency><Timestamp dt:dt="r8">1593067813995</Timestamp><Current dt:dt="r8">0</Current><DateUtc dt:dt="string">2014-09-15T18:40:51Z</DateUtc></FrequencyChange></FrequencyChanges></Clock>\n,v4_BCL_f0-1-1,60.001,1.0.0.210,1,102995802,2.0.10.242,2.0.10.242,09-15-2014,9/15/2014 6:40:52 PM,14:40:52,2.0.10.147,32,,,25,1,14,,,,,,,1,,,g,,0.251,,,10.64,,,29.26,,,,,,ExposureProc,,,,vowel 1,vowel 2,,,,Block1,g1_f0_10_64_f2_29_26_dur_0_251_num_296.wav,,,,
v4_BCL_f0,1,1,<?xml version="1.0"?>\n<Clock xmlns:dt="urn:schemas-microsoft-com:datatypes"><Description dt:dt="string">E-Prime Primary Realtime Clock</Description><StartTime><Timestamp dt:dt="int">0</Timestamp><DateUtc dt:dt="string">2014-09-15T18:40:51Z</DateUtc></StartTime><FrequencyChanges><FrequencyChange><Frequency dt:dt="r8">2327520000</Frequency><Timestamp dt:dt="r8">1593067813995</Timestamp><Current dt:dt="r8">0</Current><DateUtc dt:dt="string">2014-09-15T18:40:51Z</DateUtc></FrequencyChange></FrequencyChanges></Clock>\n,v4_BCL_f0-1-1,60.001,1.0.0.210,1,102995802,2.0.10.242,2.0.10.242,09-15-2014,9/15/2014 6:40:52 PM,14:40:52,2.0.10.147,33,,,22,1,15,,,,,,,1,,,d,,0.247,,,10.5,,,29.75,,,,,,ExposureProc,,,,vowel 1,vowel 2,,,,Block1,d1_f0_10_50_f2_29_75_dur_0_247_num_129.wav,,,,
v4_BCL_f0,1,1,<?xml version="1.0"?>\n<Clock xmlns:dt="urn:schemas-microsoft-com:datatypes"><Description dt:dt="string">E-Prime Primary Realtime Clock</Description><StartTime><Timestamp dt:dt="int">0</Timestamp><DateUtc dt:dt="string">2014-09-15T18:40:51Z</DateUtc></StartTime><FrequencyChanges><FrequencyChange><Frequency dt:dt="r8">2327520000</Frequency><Timestamp dt:dt="r8">1593067813995</Timestamp><Current dt:dt="r8">0</Current><DateUtc dt:dt="string">2014-09-15T18:40:51Z</DateUtc></FrequencyChange></FrequencyChanges></Clock>\n,v4_BCL_f0-1-1,60.001,1.0.0.210,1,102995802,2.0.10.242,2.0.10.242,09-15-2014,9/15/2014 6:40:52 PM,14:40:52,2.0.10.147,34,,,6,1,16,,,,,,,2,,,b,,0.249,,,8.88,,,29.03,,,,,,ExposureProc,,,,vowel 1,vowel 2,,,,Block1,b2_f0_8_88_f2_29_03_dur_0_249_num_356.wav,,,,
v4_BCL_f0,1,1,<?xml version="1.0"?>\n<Clock xmlns:dt="urn:schemas-microsoft-com:datatypes"><Description dt:dt="string">E-Prime Primary Realtime Clock</Description><StartTime><Timestamp dt:dt="int">0</Timestamp><DateUtc dt:dt="string">2014-09-15T18:40:51Z</DateUtc></StartTime><FrequencyChanges><FrequencyChange><Frequency dt:dt="r8">2327520000</Frequency><Timestamp dt:dt="r8">1593067813995</Timestamp><Current dt:dt="r8">0</Current><DateUtc dt:dt="string">2014-09-15T18:40:51Z</DateUtc></FrequencyChange></FrequencyChanges></Clock>\n,v4_BCL_f0-1-1,60.001,1.0.0.210,1,102995802,2.0.10.242,2.0.10.242,09-15-2014,9/15/2014 6:40:52 PM,14:40:52,2.0.10.147,35,,,10,1,17,,,,,,,2,,,b,,0.25,,,8.55,,,29.15,,,,,,ExposureProc,,,,vowel 1,vowel 2,,,,Block1,b2_f0_8_55_f2_29_15_dur_0_250_num_310.wav,,,,
v4_BCL_f0,1,1,<?xml version="1.0"?>\n<Clock xmlns:dt="urn:schemas-microsoft-com:datatypes"><Description dt:dt="string">E-Prime Primary Realtime Clock</Description><StartTime><Timestamp dt:dt="int">0</Timestamp><DateUtc dt:dt="string">2014-09-15T18:40:51Z</DateUtc></StartTime><FrequencyChanges><FrequencyChange><Frequency dt:dt="r8">2327520000</Frequency><Timestamp dt:dt="r8">1593067813995</Timestamp><Current dt:dt="r8">0</Current><DateUtc dt:dt="string">2014-09-15T18:40:51Z</DateUtc></FrequencyChange></FrequencyChanges></Clock>\n,v4_BCL_f0-1-1,60.001,1.0.0.210,1,102995802,2.0.10.242,2.0.10.242,09-15-2014,9/15/2014 6:40:52 PM,14:40:52,2.0.10.147,36,,,12,1,18,,,,,,,2,,,b,,0.252,,,8.69,,,29.39,,,,,,ExposureProc,,,,vowel 1,vowel 2,,,,Block1,b2_f0_8_69_f2_29_39_dur_0_252_num_319.wav,,,,
v4_BCL_f0,1,1,<?xml version="1.0"?>\n<Clock xmlns:dt="urn:schemas-microsoft-com:datatypes"><Description dt:dt="string">E-Prime Primary Realtime Clock</Description><StartTime><Timestamp dt:dt="int">0</Timestamp><DateUtc dt:dt="string">2014-09-15T18:40:51Z</DateUtc></StartTime><FrequencyChanges><FrequencyChange><Frequency dt:dt="r8">2327520000</Frequency><Timestamp dt:dt="r8">1593067813995</Timestamp><Current dt:dt="r8">0</Current><DateUtc dt:dt="string">2014-09-15T18:40:51Z</DateUtc></FrequencyChange></FrequencyChanges></Clock>\n,v4_BCL_f0-1-1,60.001,1.0.0.210,1,102995802,2.0.10.242,2.0.10.242,09-15-2014,9/15/2014 6:40:52 PM,14:40:52,2.0.10.147,37,,,4,1,19,,,,,,,1,,,b,,0.248,,,9.56,,,30.78,,,,,,ExposureProc,,,,vowel 1,vowel 2,,,,Block1,b1_f0_9_56_f2_30_78_dur_0_248_num_7.wav,,,,
v4_BCL_f0,1,1,<?xml version="1.0"?>\n<Clock xmlns:dt="urn:schemas-microsoft-com:datatypes"><Description dt:dt="string">E-Prime Primary Realtime Clock</Description><StartTime><Timestamp dt:dt="int">0</Timestamp><DateUtc dt:dt="string">2014-09-15T18:40:51Z</DateUtc></StartTime><FrequencyChanges><FrequencyChange><Frequency dt:dt="r8">2327520000</Frequency><Timestamp dt:dt="r8">1593067813995</Timestamp><Current dt:dt="r8">0</Current><DateUtc dt:dt="string">2014-09-15T18:40:51Z</DateUtc></FrequencyChange></FrequencyChanges></Clock>\n,v4_BCL_f0-1-1,60.001,1.0.0.210,1,102995802,2.0.10.242,2.0.10.242,09-15-2014,9/15/2014 6:40:52 PM,14:40:52,2.0.10.147,38,,,26,1,20,,,,,,,1,,,g,,0.248,,,9.5,,,30.89,,,,,,ExposureProc,,,,vowel 1,vowel 2,,,,Block1,g1_f0_9_50_f2_30_89_dur_0_248_num_223.wav,,,,
v4_BCL_f0,1,1,<?xml version="1.0"?>\n<Clock xmlns:dt="urn:schemas-microsoft-com:datatypes"><Description dt:dt="string">E-Prime Primary Realtime Clock</Description><StartTime><Timestamp dt:dt="int">0</Timestamp><DateUtc dt:dt="string">2014-09-15T18:40:51Z</DateUtc></StartTime><FrequencyChanges><FrequencyChange><Frequency dt:dt="r8">2327520000</Frequency><Timestamp dt:dt="r8">1593067813995</Timestamp><Current dt:dt="r8">0</Current><DateUtc dt:dt="string">2014-09-15T18:40:51Z</DateUtc></FrequencyChange></FrequencyChanges></Clock>\n,v4_BCL_f0-1-1,60.001,1.0.0.210,1,102995802,2.0.10.242,2.0.10.242,09-15-2014,9/15/2014 6:40:52 PM,14:40:52,2.0.10.147,39,,,3,1,21,,,,,,,2,,,b,,0.248,,,7.86,,,30.24,,,,,,ExposureProc,,,,vowel 1,vowel 2,,,,Block1,b2_f0_7_86_f2_30_24_dur_0_248_num_340.wav,,,,
v4_BCL_f0,1,1,<?xml version="1.0"?>\n<Clock xmlns:dt="urn:schemas-microsoft-com:datatypes"><Description dt:dt="string">E-Prime Primary Realtime Clock</Description><StartTime><Timestamp dt:dt="int">0</Timestamp><DateUtc dt:dt="string">2014-09-15T18:40:51Z</DateUtc></StartTime><FrequencyChanges><FrequencyChange><Frequency dt:dt="r8">2327520000</Frequency><Timestamp dt:dt="r8">1593067813995</Timestamp><Current dt:dt="r8">0</Current><DateUtc dt:dt="string">2014-09-15T18:40:51Z</DateUtc></FrequencyChange></FrequencyChanges></Clock>\n,v4_BCL_f0-1-1,60.001,1.0.0.210,1,102995802,2.0.10.242,2.0.10.242,09-15-2014,9/15/2014 6:40:52 PM,14:40:52,2.0.10.147,40,,,15,1,22,,,,,,,1,,,d,,0.247,,,10.82,,,29.95,,,,,,ExposureProc,,,,vowel 1,vowel 2,,,,Block1,d1_f0_10_82_f2_29_95_dur_0_247_num_181.wav,,,,
v4_BCL_f0,1,1,<?xml version="1.0"?>\n<Clock xmlns:dt="urn:schemas-microsoft-com:datatypes"><Description dt:dt="string">E-Prime Primary Realtime Clock</Description><StartTime><Timestamp dt:dt="int">0</Timestamp><DateUtc dt:dt="string">2014-09-15T18:40:51Z</DateUtc></StartTime><FrequencyChanges><FrequencyChange><Frequency dt:dt="r8">2327520000</Frequency><Timestamp dt:dt="r8">1593067813995</Timestamp><Current dt:dt="r8">0</Current><DateUtc dt:dt="string">2014-09-15T18:40:51Z</DateUtc></FrequencyChange></FrequencyChanges></Clock>\n,v4_BCL_f0-1-1,60.001,1.0.0.210,1,102995802,2.0.10.242,2.0.10.242,09-15-2014,9/15/2014 6:40:52 PM,14:40:52,2.0.10.147,41,,,7,1,23,,,,,,,1,,,b,,0.251,,,10.38,,,30.6,,,,,,ExposureProc,,,,vowel 1,vowel 2,,,,Block1,b1_f0_10_38_f2_30_60_dur_0_251_num_4.wav,,,,
v4_BCL_f0,1,1,<?xml version="1.0"?>\n<Clock xmlns:dt="urn:schemas-microsoft-com:datatypes"><Description dt:dt="string">E-Prime Primary Realtime Clock</Description><StartTime><Timestamp dt:dt="int">0</Timestamp><DateUtc dt:dt="string">2014-09-15T18:40:51Z</DateUtc></StartTime><FrequencyChanges><FrequencyChange><Frequency dt:dt="r8">2327520000</Frequency><Timestamp dt:dt="r8">1593067813995</Timestamp><Current dt:dt="r8">0</Current><DateUtc dt:dt="string">2014-09-15T18:40:51Z</DateUtc></FrequencyChange></FrequencyChanges></Clock>\n,v4_BCL_f0-1-1,60.001,1.0.0.210,1,102995802,2.0.10.242,2.0.10.242,09-15-2014,9/15/2014 6:40:52 PM,14:40:52,2.0.10.147,42,,,8,1,24,,,,,,,1,,,b,,0.249,,,10.41,,,30.13,,,,,,ExposureProc,,,,vowel 1,vowel 2,,,,Block1,b1_f0_10_41_f2_30_13_dur_0_249_num_93.wav,,,,
v4_BCL_f0,1,1,<?xml version="1.0"?>\n<Clock xmlns:dt="urn:schemas-microsoft-com:datatypes"><Description dt:dt="string">E-Prime Primary Realtime Clock</Description><StartTime><Timestamp dt:dt="int">0</Timestamp><DateUtc dt:dt="string">2014-09-15T18:40:51Z</DateUtc></StartTime><FrequencyChanges><FrequencyChange><Frequency dt:dt="r8">2327520000</Frequency><Timestamp dt:dt="r8">1593067813995</Timestamp><Current dt:dt="r8">0</Current><DateUtc dt:dt="string">2014-09-15T18:40:51Z</DateUtc></FrequencyChange></FrequencyChanges></Clock>\n,v4_BCL_f0-1-1,60.001,1.0.0.210,1,102995802,2.0.10.242,2.0.10.242,09-15-2014,9/15/2014 6:40:52 PM,14:40:52,2.0.10.147,43,,,27,1,25,,,,,,,2,,,g,,0.248,,,9.44,,,29.82,,,,,,ExposureProc,,,,vowel 1,vowel 2,,,,Block1,g2_f0_9_44_f2_29_82_dur_0_248_num_589.wav,,,,
v4_BCL_f0,1,1,<?xml version="1.0"?>\n<Clock xmlns:dt="urn:schemas-microsoft-com:datatypes"><Description dt:dt="string">E-Prime Primary Realtime Clock</Description><StartTime><Timestamp dt:dt="int">0</Timestamp><DateUtc dt:dt="string">2014-09-15T18:40:51Z</DateUtc></StartTime><FrequencyChanges><FrequencyChange><Frequency dt:dt="r8">2327520000</Frequency><Timestamp dt:dt="r8">1593067813995</Timestamp><Current dt:dt="r8">0</Current><DateUtc dt:dt="string">2014-09-15T18:40:51Z</DateUtc></FrequencyChange></FrequencyChanges></Clock>\n,v4_BCL_f0-1-1,60.001,1.0.0.210,1,102995802,2.0.10.242,2.0.10.242,09-15-2014,9/15/2014 6:40:52 PM,14:40:52,2.0.10.147,44,,,13,1,26,,,,,,,2,,,d,,0.249,,,8.14,,,29.41,,,,,,ExposureProc,,,,vowel 1,vowel 2,,,,Block1,d2_f0_8_14_f2_29_41_dur_0_249_num_419.wav,,,,
v4_BCL_f0,1,1,<?xml version="1.0"?>\n<Clock xmlns:dt="urn:schemas-microsoft-com:datatypes"><Description dt:dt="string">E-Prime Primary Realtime Clock</Description><StartTime><Timestamp dt:dt="int">0</Timestamp><DateUtc dt:dt="string">2014-09-15T18:40:51Z</DateUtc></StartTime><FrequencyChanges><FrequencyChange><Frequency dt:dt="r8">2327520000</Frequency><Timestamp dt:dt="r8">1593067813995</Timestamp><Current dt:dt="r8">0</Current><DateUtc dt:dt="string">2014-09-15T18:40:51Z</DateUtc></FrequencyChange></FrequencyChanges></Clock>\n,v4_BCL_f0-1-1,60.001,1.0.0.210,1,102995802,2.0.10.242,2.0.10.242,09-15-2014,9/15/2014 6:40:52 PM,14:40:52,2.0.10.147,45,,,34,1,27,,,,,,,1,,,g,,0.254,,,10.17,,,30.19,,,,,,ExposureProc,,,,vowel 1,vowel 2,,,,Block1,g1_f0_10_17_f2_30_19_dur_0_254_num_293.wav,,,,
v4_BCL_f0,1,1,<?xml version="1.0"?>\n<Clock xmlns:dt="urn:schemas-microsoft-com:datatypes"><Description dt:dt="string">E-Prime Primary Realtime Clock</Description><StartTime><Timestamp dt:dt="int">0</Timestamp><DateUtc dt:dt="string">2014-09-15T18:40:51Z</DateUtc></StartTime><FrequencyChanges><FrequencyChange><Frequency dt:dt="r8">2327520000</Frequency><Timestamp dt:dt="r8">1593067813995</Timestamp><Current dt:dt="r8">0</Current><DateUtc dt:dt="string">2014-09-15T18:40:51Z</DateUtc></FrequencyChange></FrequencyChanges></Clock>\n,v4_BCL_f0-1-1,60.001,1.0.0.210,1,102995802,2.0.10.242,2.0.10.242,09-15-2014,9/15/2014 6:40:52 PM,14:40:52,2.0.10.147,46,,,20,1,28,,,,,,,1,,,d,,0.248,,,9.12,,,30.18,,,,,,ExposureProc,,,,vowel 1,vowel 2,,,,Block1,d1_f0_9_12_f2_30_18_dur_0_248_num_140.wav,,,,
v4_BCL_f0,1,1,<?xml version="1.0"?>\n<Clock xmlns:dt="urn:schemas-microsoft-com:datatypes"><Description dt:dt="string">E-Prime Primary Realtime Clock</Description><StartTime><Timestamp dt:dt="int">0</Timestamp><DateUtc dt:dt="string">2014-09-15T18:40:51Z</DateUtc></StartTime><FrequencyChanges><FrequencyChange><Frequency dt:dt="r8">2327520000</Frequency><Timestamp dt:dt="r8">1593067813995</Timestamp><Current dt:dt="r8">0</Current><DateUtc dt:dt="string">2014-09-15T18:40:51Z</DateUtc></FrequencyChange></FrequencyChanges></Clock>\n,v4_BCL_f0-1-1,60.001,1.0.0.210,1,102995802,2.0.10.242,2.0.10.242,09-15-2014,9/15/2014 6:40:52 PM,14:40:52,2.0.10.147,47,,,18,1,29,,,,,,,2,,,d,,0.25,,,9.68,,,28.69,,,,,,ExposureProc,,,,vowel 1,vowel 2,,,,Block1,d2_f0_9_68_f2_28_69_dur_0_250_num_477.wav,,,,
v4_BCL_f0,1,1,<?xml version="1.0"?>\n<Clock xmlns:dt="urn:schemas-microsoft-com:datatypes"><Description dt:dt="string">E-Prime Primary Realtime Clock</Description><StartTime><Timestamp dt:dt="int">0</Timestamp><DateUtc dt:dt="string">2014-09-15T18:40:51Z</DateUtc></StartTime><FrequencyChanges><FrequencyChange><Frequency dt:dt="r8">2327520000</Frequency><Timestamp dt:dt="r8">1593067813995</Timestamp><Current dt:dt="r8">0</Current><DateUtc dt:dt="string">2014-09-15T18:40:51Z</DateUtc></FrequencyChange></FrequencyChanges></Clock>\n,v4_BCL_f0-1-1,60.001,1.0.0.210,1,102995802,2.0.10.242,2.0.10.242,09-15-2014,9/15/2014 6:40:52 PM,14:40:52,2.0.10.147,48,,,35,1,30,,,,,,,2,,,g,,0.254,,,8.14,,,29.4,,,,,,ExposureProc,,,,vowel 1,vowel 2,,,,Block1,g2_f0_8_14_f2_29_40_dur_0_254_num_593.wav,,,,
v4_BCL_f0,1,1,<?xml version="1.0"?>\n<Clock xmlns:dt="urn:schemas-microsoft-com:datatypes"><Description dt:dt="string">E-Prime Primary Realtime Clock</Description><StartTime><Timestamp dt:dt="int">0</Timestamp><DateUtc dt:dt="string">2014-09-15T18:40:51Z</DateUtc></StartTime><FrequencyChanges><FrequencyChange><Frequency dt:dt="r8">2327520000</Frequency><Timestamp dt:dt="r8">1593067813995</Timestamp><Current dt:dt="r8">0</Current><DateUtc dt:dt="string">2014-09-15T18:40:51Z</DateUtc></FrequencyChange></FrequencyChanges></Clock>\n,v4_BCL_f0-1-1,60.001,1.0.0.210,1,102995802,2.0.10.242,2.0.10.242,09-15-2014,9/15/2014 6:40:52 PM,14:40:52,2.0.10.147,49,,,36,1,31,,,,,,,2,,,g,,0.248,,,8.3,,,29.96,,,,,,ExposureProc,,,,vowel 1,vowel 2,,,,Block1,g2_f0_8_30_f2_29_96_dur_0_248_num_533.wav,,,,
v4_BCL_f0,1,1,<?xml version="1.0"?>\n<Clock xmlns:dt="urn:schemas-microsoft-com:datatypes"><Description dt:dt="string">E-Prime Primary Realtime Clock</Description><StartTime><Timestamp dt:dt="int">0</Timestamp><DateUtc dt:dt="string">2014-09-15T18:40:51Z</DateUtc></StartTime><FrequencyChanges><FrequencyChange><Frequency dt:dt="r8">2327520000</Frequency><Timestamp dt:dt="r8">1593067813995</Timestamp><Current dt:dt="r8">0</Current><DateUtc dt:dt="string">2014-09-15T18:40:51Z</DateUtc></FrequencyChange></FrequencyChanges></Clock>\n,v4_BCL_f0-1-1,60.001,1.0.0.210,1,102995802,2.0.10.242,2.0.10.242,09-15-2014,9/15/2014 6:40:52 PM,14:40:52,2.0.10.147,50,,,5,1,32,,,,,,,2,,,b,,0.252,,,7.55,,,30.38,,,,,,ExposureProc,,,,vowel 1,vowel 2,,,,Block1,b2_f0_7_55_f2_30_38_dur_0_252_num_336.wav,,,,
v4_BCL_f0,1,1,<?xml version="1.0"?>\n<Clock xmlns:dt="urn:schemas-microsoft-com:datatypes"><Description dt:dt="string">E-Prime Primary Realtime Clock</Description><StartTime><Timestamp dt:dt="int">0</Timestamp><DateUtc dt:dt="string">2014-09-15T18:40:51Z</DateUtc></StartTime><FrequencyChanges><FrequencyChange><Frequency dt:dt="r8">2327520000</Frequency><Timestamp dt:dt="r8">1593067813995</Timestamp><Current dt:dt="r8">0</Current><DateUtc dt:dt="string">2014-09-15T18:40:51Z</DateUtc></FrequencyChange></FrequencyChanges></Clock>\n,v4_BCL_f0-1-1,60.001,1.0.0.210,1,102995802,2.0.10.242,2.0.10.242,09-15-2014,9/15/2014 6:40:52 PM,14:40:52,2.0.10.147,51,,,11,1,33,,,,,,,1,,,b,,0.247,,,9.95,,,29.67,,,,,,ExposureProc,,,,vowel 1,vowel 2,,,,Block1,b1_f0_9_95_f2_29_67_dur_0_247_num_29.wav,,,,
v4_BCL_f0,1,1,<?xml version="1.0"?>\n<Clock xmlns:dt="urn:schemas-microsoft-com:datatypes"><Description dt:dt="string">E-Prime Primary Realtime Clock</Description><StartTime><Timestamp dt:dt="int">0</Timestamp><DateUtc dt:dt="string">2014-09-15T18:40:51Z</DateUtc></StartTime><FrequencyChanges><FrequencyChange><Frequency dt:dt="r8">2327520000</Frequency><Timestamp dt:dt="r8">1593067813995</Timestamp><Current dt:dt="r8">0</Current><DateUtc dt:dt="string">2014-09-15T18:40:51Z</DateUtc></FrequencyChange></FrequencyChanges></Clock>\n,v4_BCL_f0-1-1,60.001,1.0.0.210,1,102995802,2.0.10.242,2.0.10.242,09-15-2014,9/15/2014 6:40:52 PM,14:40:52,2.0.10.147,52,,,32,1,34,,,,,,,2,,,g,,0.248,,,8.4,,,28.96,,,,,,ExposureProc,,,,vowel 1,vowel 2,,,,Block1,g2_f0_8_40_f2_28_96_dur_0_248_num_564.wav,,,,
v4_BCL_f0,1,1,<?xml version="1.0"?>\n<Clock xmlns:dt="urn:schemas-microsoft-com:datatypes"><Description dt:dt="string">E-Prime Primary Realtime Clock</Description><StartTime><Timestamp dt:dt="int">0</Timestamp><DateUtc dt:dt="string">2014-09-15T18:40:51Z</DateUtc></StartTime><FrequencyChanges><FrequencyChange><Frequency dt:dt="r8">2327520000</Frequency><Timestamp dt:dt="r8">1593067813995</Timestamp><Current dt:dt="r8">0</Current><DateUtc dt:dt="string">2014-09-15T18:40:51Z</DateUtc></FrequencyChange></FrequencyChanges></Clock>\n,v4_BCL_f0-1-1,60.001,1.0.0.210,1,102995802,2.0.10.242,2.0.10.242,09-15-2014,9/15/2014 6:40:52 PM,14:40:52,2.0.10.147,53,,,19,1,35,,,,,,,1,,,d,,0.248,,,9,,,31.15,,,,,,ExposureProc,,,,vowel 1,vowel 2,,,,Block1,d1_f0_9_00_f2_31_15_dur_0_248_num_110.wav,,,,
v4_BCL_f0,1,1,<?xml version="1.0"?>\n<Clock xmlns:dt="urn:schemas-microsoft-com:datatypes"><Description dt:dt="string">E-Prime Primary Realtime Clock</Description><StartTime><Timestamp dt:dt="int">0</Timestamp><DateUtc dt:dt="string">2014-09-15T18:40:51Z</DateUtc></StartTime><FrequencyChanges><FrequencyChange><Frequency dt:dt="r8">2327520000</Frequency><Timestamp dt:dt="r8">1593067813995</Timestamp><Current dt:dt="r8">0</Current><DateUtc dt:dt="string">2014-09-15T18:40:51Z</DateUtc></FrequencyChange></FrequencyChanges></Clock>\n,v4_BCL_f0-1-1,60.001,1.0.0.210,1,102995802,2.0.10.242,2.0.10.242,09-15-2014,9/15/2014 6:40:52 PM,14:40:52,2.0.10.147,54,,,2,1,36,,,,,,,2,,,b,,0.253,,,8.55,,,29.96,,,,,,ExposureProc,,,,vowel 1,vowel 2,,,,Block1,b2_f0_8_55_f2_29_96_dur_0_253_num_313.wav,,,,
v4_BCL_f0,1,1,<?xml version="1.0"?>\n<Clock xmlns:dt="urn:schemas-microsoft-com:datatypes"><Description dt:dt="string">E-Prime Primary Realtime Clock</Description><StartTime><Timestamp dt:dt="int">0</Timestamp><DateUtc dt:dt="string">2014-09-15T18:40:51Z</DateUtc></StartTime><FrequencyChanges><FrequencyChange><Frequency dt:dt="r8">2327520000</Frequency><Timestamp dt:dt="r8">1593067813995</Timestamp><Current dt:dt="r8">0</Current><DateUtc dt:dt="string">2014-09-15T18:40:51Z</DateUtc></FrequencyChange></FrequencyChanges></Clock>\n,v4_BCL_f0-1-1,60.001,1.0.0.210,1,102995802,2.0.10.242,2.0.10.242,09-15-2014,9/15/2014 6:40:52 PM,14:40:52,2.0.10.147,55,,,,,,1,1,1,,,,1,,,b,,0.248,,,11.01,,,28.69,,,,,,TrialProc1,,,,vowel 1,vowel 2,1,432,139342,Block2,b1_f0_11_01_f2_28_69_dur_0_248_num_66.wav,,,,
v4_BCL_f0,1,1,<?xml version="1.0"?>\n<Clock xmlns:dt="urn:schemas-microsoft-com:datatypes"><Description dt:dt="string">E-Prime Primary Realtime Clock</Description><StartTime><Timestamp dt:dt="int">0</Timestamp><DateUtc dt:dt="string">2014-09-15T18:40:51Z</DateUtc></StartTime><FrequencyChanges><FrequencyChange><Frequency dt:dt="r8">2327520000</Frequency><Timestamp dt:dt="r8">1593067813995</Timestamp><Current dt:dt="r8">0</Current><DateUtc dt:dt="string">2014-09-15T18:40:51Z</DateUtc></FrequencyChange></FrequencyChanges></Clock>\n,v4_BCL_f0-1-1,60.001,1.0.0.210,1,102995802,2.0.10.242,2.0.10.242,09-15-2014,9/15/2014 6:40:52 PM,14:40:52,2.0.10.147,56,,,,,,2,1,2,,,,1,,,b,,0.254,,,9.53,,,30.29,,,,,,TrialProc1,,,,vowel 1,vowel 2,1,359,140502,Block2,b1_f0_9_53_f2_30_29_dur_0_254_num_48.wav,,,,
v4_BCL_f0,1,1,<?xml version="1.0"?>\n<Clock xmlns:dt="urn:schemas-microsoft-com:datatypes"><Description dt:dt="string">E-Prime Primary Realtime Clock</Description><StartTime><Timestamp dt:dt="int">0</Timestamp><DateUtc dt:dt="string">2014-09-15T18:40:51Z</DateUtc></StartTime><FrequencyChanges><FrequencyChange><Frequency dt:dt="r8">2327520000</Frequency><Timestamp dt:dt="r8">1593067813995</Timestamp><Current dt:dt="r8">0</Current><DateUtc dt:dt="string">2014-09-15T18:40:51Z</DateUtc></FrequencyChange></FrequencyChanges></Clock>\n,v4_BCL_f0-1-1,60.001,1.0.0.210,1,102995802,2.0.10.242,2.0.10.242,09-15-2014,9/15/2014 6:40:52 PM,14:40:52,2.0.10.147,57,,,,,,3,1,3,,,,1,,,b,,0.247,,,9.95,,,29.96,,,,,,TrialProc1,,,,vowel 1,vowel 2,1,331,141657,Block2,b1_f0_9_95_f2_29_96_dur_0_247_num_34.wav,,,,
v4_BCL_f0,1,1,<?xml version="1.0"?>\n<Clock xmlns:dt="urn:schemas-microsoft-com:datatypes"><Description dt:dt="string">E-Prime Primary Realtime Clock</Description><StartTime><Timestamp dt:dt="int">0</Timestamp><DateUtc dt:dt="string">2014-09-15T18:40:51Z</DateUtc></StartTime><FrequencyChanges><FrequencyChange><Frequency dt:dt="r8">2327520000</Frequency><Timestamp dt:dt="r8">1593067813995</Timestamp><Current dt:dt="r8">0</Current><DateUtc dt:dt="string">2014-09-15T18:40:51Z</DateUtc></FrequencyChange></FrequencyChanges></Clock>\n,v4_BCL_f0-1-1,60.001,1.0.0.210,1,102995802,2.0.10.242,2.0.10.242,09-15-2014,9/15/2014 6:40:52 PM,14:40:52,2.0.10.147,58,,,,,,4,1,4,,,,1,,,b,,0.246,,,10.53,,,29.87,,,,,,TrialProc1,,,,vowel 1,vowel 2,2,528,143004,Block2,b1_f0_10_53_f2_29_87_dur_0_246_num_56.wav,,,,
v4_BCL_f0,1,1,<?xml version="1.0"?>\n<Clock xmlns:dt="urn:schemas-microsoft-com:datatypes"><Description dt:dt="string">E-Prime Primary Realtime Clock</Description><StartTime><Timestamp dt:dt="int">0</Timestamp><DateUtc dt:dt="string">2014-09-15T18:40:51Z</DateUtc></StartTime><FrequencyChanges><FrequencyChange><Frequency dt:dt="r8">2327520000</Frequency><Timestamp dt:dt="r8">1593067813995</Timestamp><Current dt:dt="r8">0</Current><DateUtc dt:dt="string">2014-09-15T18:40:51Z</DateUtc></FrequencyChange></FrequencyChanges></Clock>\n,v4_BCL_f0-1-1,60.001,1.0.0.210,1,102995802,2.0.10.242,2.0.10.242,09-15-2014,9/15/2014 6:40:52 PM,14:40:52,2.0.10.147,59,,,,,,5,1,5,,,,1,,,b,,0.252,,,9.74,,,30.21,,,,,,TrialProc1,,,,vowel 1,vowel 2,1,778,144587,Block2,b1_f0_9_74_f2_30_21_dur_0_252_num_42.wav,,,,
v4_BCL_f0,1,1,<?xml version="1.0"?>\n<Clock xmlns:dt="urn:schemas-microsoft-com:datatypes"><Description dt:dt="string">E-Prime Primary Realtime Clock</Description><StartTime><Timestamp dt:dt="int">0</Timestamp><DateUtc dt:dt="string">2014-09-15T18:40:51Z</DateUtc></StartTime><FrequencyChanges><FrequencyChange><Frequency dt:dt="r8">2327520000</Frequency><Timestamp dt:dt="r8">1593067813995</Timestamp><Current dt:dt="r8">0</Current><DateUtc dt:dt="string">2014-09-15T18:40:51Z</DateUtc></FrequencyChange></FrequencyChanges></Clock>\n,v4_BCL_f0-1-1,60.001,1.0.0.210,1,102995802,2.0.10.242,2.0.10.242,09-15-2014,9/15/2014 6:40:52 PM,14:40:52,2.0.10.147,60,,,,,,6,1,6,,,,2,,,b,,0.248,,,8.78,,,29.46,,,,,,TrialProc1,,,,vowel 1,vowel 2,1,599,145992,Block2,b2_f0_8_78_f2_29_46_dur_0_248_num_330.wav,,,,
v4_BCL_f0,1,1,<?xml version="1.0"?>\n<Clock xmlns:dt="urn:schemas-microsoft-com:datatypes"><Description dt:dt="string">E-Prime Primary Realtime Clock</Description><StartTime><Timestamp dt:dt="int">0</Timestamp><DateUtc dt:dt="string">2014-09-15T18:40:51Z</DateUtc></StartTime><FrequencyChanges><FrequencyChange><Frequency dt:dt="r8">2327520000</Frequency><Timestamp dt:dt="r8">1593067813995</Timestamp><Current dt:dt="r8">0</Current><DateUtc dt:dt="string">2014-09-15T18:40:51Z</DateUtc></FrequencyChange></FrequencyChanges></Clock>\n,v4_BCL_f0-1-1,60.001,1.0.0.210,1,102995802,2.0.10.242,2.0.10.242,09-15-2014,9/15/2014 6:40:52 PM,14:40:52,2.0.10.147,61,,,,,,7,1,7,,,,2,,,b,,0.252,,,8.19,,,29.92,,,,,,TrialProc1,,,,vowel 1,vowel 2,1,399,147208,Block2,b2_f0_8_19_f2_29_92_dur_0_252_num_365.wav,,,,
v4_BCL_f0,1,1,<?xml version="1.0"?>\n<Clock xmlns:dt="urn:schemas-microsoft-com:datatypes"><Description dt:dt="string">E-Prime Primary Realtime Clock</Description><StartTime><Timestamp dt:dt="int">0</Timestamp><DateUtc dt:dt="string">2014-09-15T18:40:51Z</DateUtc></StartTime><FrequencyChanges><FrequencyChange><Frequency dt:dt="r8">2327520000</Frequency><Timestamp dt:dt="r8">1593067813995</Timestamp><Current dt:dt="r8">0</Current><DateUtc dt:dt="string">2014-09-15T18:40:51Z</DateUtc></FrequencyChange></FrequencyChanges></Clock>\n,v4_BCL_f0-1-1,60.001,1.0.0.210,1,102995802,2.0.10.242,2.0.10.242,09-15-2014,9/15/2014 6:40:52 PM,14:40:52,2.0.10.147,62,,,,,,8,1,8,,,,1,,,b,,0.249,,,9.59,,,30.9,,,,,,TrialProc1,,,,vowel 1,vowel 2,2,185,148211,Block2,b1_f0_9_59_f2_30_90_dur_0_249_num_90.wav,,,,
v4_BCL_f0,1,1,<?xml version="1.0"?>\n<Clock xmlns:dt="urn:schemas-microsoft-com:datatypes"><Description dt:dt="string">E-Prime Primary Realtime Clock</Description><StartTime><Timestamp dt:dt="int">0</Timestamp><DateUtc dt:dt="string">2014-09-15T18:40:51Z</DateUtc></StartTime><FrequencyChanges><FrequencyChange><Frequency dt:dt="r8">2327520000</Frequency><Timestamp dt:dt="r8">1593067813995</Timestamp><Current dt:dt="r8">0</Current><DateUtc dt:dt="string">2014-09-15T18:40:51Z</DateUtc></FrequencyChange></FrequencyChanges></Clock>\n,v4_BCL_f0-1-1,60.001,1.0.0.210,1,102995802,2.0.10.242,2.0.10.242,09-15-2014,9/15/2014 6:40:52 PM,14:40:52,2.0.10.147,63,,,,,,9,1,9,,,,2,,,b,,0.248,,,8.61,,,29.55,,,,,,TrialProc1,,,,vowel 1,vowel 2,1,162,149188,Block2,b2_f0_8_61_f2_29_55_dur_0_248_num_397.wav,,,,
v4_BCL_f0,1,1,<?xml version="1.0"?>\n<Clock xmlns:dt="urn:schemas-microsoft-com:datatypes"><Description dt:dt="string">E-Prime Primary Realtime Clock</Description><StartTime><Timestamp dt:dt="int">0</Timestamp><DateUtc dt:dt="string">2014-09-15T18:40:51Z</DateUtc></StartTime><FrequencyChanges><FrequencyChange><Frequency dt:dt="r8">2327520000</Frequency><Timestamp dt:dt="r8">1593067813995</Timestamp><Current dt:dt="r8">0</Current><DateUtc dt:dt="string">2014-09-15T18:40:51Z</DateUtc></FrequencyChange></FrequencyChanges></Clock>\n,v4_BCL_f0-1-1,60.001,1.0.0.210,1,102995802,2.0.10.242,2.0.10.242,09-15-2014,9/15/2014 6:40:52 PM,14:40:52,2.0.10.147,64,,,,,,10,1,10,,,,2,,,b,,0.251,,,10.07,,,28.74,,,,,,TrialProc1,,,,vowel 1,vowel 2,2,141,150134,Block2,b2_f0_10_07_f2_28_74_dur_0_251_num_399.wav,,,,
v4_BCL_f0,1,1,<?xml version="1.0"?>\n<Clock xmlns:dt="urn:schemas-microsoft-com:datatypes"><Description dt:dt="string">E-Prime Primary Realtime Clock</Description><StartTime><Timestamp dt:dt="int">0</Timestamp><DateUtc dt:dt="string">2014-09-15T18:40:51Z</DateUtc></StartTime><FrequencyChanges><FrequencyChange><Frequency dt:dt="r8">2327520000</Frequency><Timestamp dt:dt="r8">1593067813995</Timestamp><Current dt:dt="r8">0</Current><DateUtc dt:dt="string">2014-09-15T18:40:51Z</DateUtc></FrequencyChange></FrequencyChanges></Clock>\n,v4_BCL_f0-1-1,60.001,1.0.0.210,1,102995802,2.0.10.242,2.0.10.242,09-15-2014,9/15/2014 6:40:52 PM,14:40:52,2.0.10.147,65,,,,,,11,1,11,,,,1,,,b,,0.247,,,9.21,,,31.81,,,,,,TrialProc1,,,,vowel 1,vowel 2,1,147,151090,Block2,b1_f0_9_21_f2_31_81_dur_0_247_num_73.wav,,,,
v4_BCL_f0,1,1,<?xml version="1.0"?>\n<Clock xmlns:dt="urn:schemas-microsoft-com:datatypes"><Description dt:dt="string">E-Prime Primary Realtime Clock</Description><StartTime><Timestamp dt:dt="int">0</Timestamp><DateUtc dt:dt="string">2014-09-15T18:40:51Z</DateUtc></StartTime><FrequencyChanges><FrequencyChange><Frequency dt:dt="r8">2327520000</Frequency><Timestamp dt:dt="r8">1593067813995</Timestamp><Current dt:dt="r8">0</Current><DateUtc dt:dt="string">2014-09-15T18:40:51Z</DateUtc></FrequencyChange></FrequencyChanges></Clock>\n,v4_BCL_f0-1-1,60.001,1.0.0.210,1,102995802,2.0.10.242,2.0.10.242,09-15-2014,9/15/2014 6:40:52 PM,14:40:52,2.0.10.147,66,,,,,,12,1,12,,,,1,,,b,,0.246,,,10.73,,,28.92,,,,,,TrialProc1,,,,vowel 1,vowel 2,2,159,152068,Block2,b1_f0_10_73_f2_28_92_dur_0_246_num_100.wav,,,,
v4_BCL_f0,1,1,<?xml version="1.0"?>\n<Clock xmlns:dt="urn:schemas-microsoft-com:datatypes"><Description dt:dt="string">E-Prime Primary Realtime Clock</Description><StartTime><Timestamp dt:dt="int">0</Timestamp><DateUtc dt:dt="string">2014-09-15T18:40:51Z</DateUtc></StartTime><FrequencyChanges><FrequencyChange><Frequency dt:dt="r8">2327520000</Frequency><Timestamp dt:dt="r8">1593067813995</Timestamp><Current dt:dt="r8">0</Current><DateUtc dt:dt="string">2014-09-15T18:40:51Z</DateUtc></FrequencyChange></FrequencyChanges></Clock>\n,v4_BCL_f0-1-1,60.001,1.0.0.210,1,102995802,2.0.10.242,2.0.10.242,09-15-2014,9/15/2014 6:40:52 PM,14:40:52,2.0.10.147,67,,,,,,13,1,13,,,,1,,,b,,0.251,,,9.88,,,30.49,,,,,,TrialProc1,,,,vowel 1,vowel 2,1,137,153013,Block2,b1_f0_9_88_f2_30_49_dur_0_251_num_17.wav,,,,
v4_BCL_f0,1,1,<?xml version="1.0"?>\n<Clock xmlns:dt="urn:schemas-microsoft-com:datatypes"><Description dt:dt="string">E-Prime Primary Realtime Clock</Description><StartTime><Timestamp dt:dt="int">0</Timestamp><DateUtc dt:dt="string">2014-09-15T18:40:51Z</DateUtc></StartTime><FrequencyChanges><FrequencyChange><Frequency dt:dt="r8">2327520000</Frequency><Timestamp dt:dt="r8">1593067813995</Timestamp><Current dt:dt="r8">0</Current><DateUtc dt:dt="string">2014-09-15T18:40:51Z</DateUtc></FrequencyChange></FrequencyChanges></Clock>\n,v4_BCL_f0-1-1,60.001,1.0.0.210,1,102995802,2.0.10.242,2.0.10.242,09-15-2014,9/15/2014 6:40:52 PM,14:40:52,2.0.10.147,68,,,,,,14,1,14,,,,1,,,b,,0.245,,,9.97,,,31.16,,,,,,TrialProc1,,,,vowel 1,vowel 2,1,107,153933,Block2,b1_f0_9_97_f2_31_16_dur_0_245_num_59.wav,,,,
v4_BCL_f0,1,1,<?xml version="1.0"?>\n<Clock xmlns:dt="urn:schemas-microsoft-com:datatypes"><Description dt:dt="string">E-Prime Primary Realtime Clock</Description><StartTime><Timestamp dt:dt="int">0</Timestamp><DateUtc dt:dt="string">2014-09-15T18:40:51Z</DateUtc></StartTime><FrequencyChanges><FrequencyChange><Frequency dt:dt="r8">2327520000</Frequency><Timestamp dt:dt="r8">1593067813995</Timestamp><Current dt:dt="r8">0</Current><DateUtc dt:dt="string">2014-09-15T18:40:51Z</DateUtc></FrequencyChange></FrequencyChanges></Clock>\n,v4_BCL_f0-1-1,60.001,1.0.0.210,1,102995802,2.0.10.242,2.0.10.242,09-15-2014,9/15/2014 6:40:52 PM,14:40:52,2.0.10.147,69,,,,,,15,1,15,,,,2,,,b,,0.252,,,10.06,,,29.12,,,,,,TrialProc1,,,,vowel 1,vowel 2,1,145,154888,Block2,b2_f0_10_06_f2_29_12_dur_0_252_num_321.wav,,,,
v4_BCL_f0,1,1,<?xml version="1.0"?>\n<Clock xmlns:dt="urn:schemas-microsoft-com:datatypes"><Description dt:dt="string">E-Prime Primary Realtime Clock</Description><StartTime><Timestamp dt:dt="int">0</Timestamp><DateUtc dt:dt="string">2014-09-15T18:40:51Z</DateUtc></StartTime><FrequencyChanges><FrequencyChange><Frequency dt:dt="r8">2327520000</Frequency><Timestamp dt:dt="r8">1593067813995</Timestamp><Current dt:dt="r8">0</Current><DateUtc dt:dt="string">2014-09-15T18:40:51Z</DateUtc></FrequencyChange></FrequencyChanges></Clock>\n,v4_BCL_f0-1-1,60.001,1.0.0.210,1,102995802,2.0.10.242,2.0.10.242,09-15-2014,9/15/2014 6:40:52 PM,14:40:52,2.0.10.147,70,,,,,,16,1,16,,,,2,,,b,,0.25,,,9.76,,,29.12,,,,,,TrialProc1,,,,vowel 1,vowel 2,1,133,155826,Block2,b2_f0_9_76_f2_29_12_dur_0_250_num_360.wav,,,,
v4_BCL_f0,1,1,<?xml version="1.0"?>\n<Clock xmlns:dt="urn:schemas-microsoft-com:datatypes"><Description dt:dt="string">E-Prime Primary Realtime Clock</Description><StartTime><Timestamp dt:dt="int">0</Timestamp><DateUtc dt:dt="string">2014-09-15T18:40:51Z</DateUtc></StartTime><FrequencyChanges><FrequencyChange><Frequency dt:dt="r8">2327520000</Frequency><Timestamp dt:dt="r8">1593067813995</Timestamp><Current dt:dt="r8">0</Current><DateUtc dt:dt="string">2014-09-15T18:40:51Z</DateUtc></FrequencyChange></FrequencyChanges></Clock>\n,v4_BCL_f0-1-1,60.001,1.0.0.210,1,102995802,2.0.10.242,2.0.10.242,09-15-2014,9/15/2014 6:40:52 PM,14:40:52,2.0.10.147,71,,,,,,17,1,17,,,,1,,,b,,0.252,,,9.16,,,31.19,,,,,,TrialProc1,,,,vowel 1,vowel 2,1,153,156796,Block2,b1_f0_9_16_f2_31_19_dur_0_252_num_5.wav,,,,
v4_BCL_f0,1,1,<?xml version="1.0"?>\n<Clock xmlns:dt="urn:schemas-microsoft-com:datatypes"><Description dt:dt="string">E-Prime Primary Realtime Clock</Description><StartTime><Timestamp dt:dt="int">0</Timestamp><DateUtc dt:dt="string">2014-09-15T18:40:51Z</DateUtc></StartTime><FrequencyChanges><FrequencyChange><Frequency dt:dt="r8">2327520000</Frequency><Timestamp dt:dt="r8">1593067813995</Timestamp><Current dt:dt="r8">0</Current><DateUtc dt:dt="string">2014-09-15T18:40:51Z</DateUtc></FrequencyChange></FrequencyChanges></Clock>\n,v4_BCL_f0-1-1,60.001,1.0.0.210,1,102995802,2.0.10.242,2.0.10.242,09-15-2014,9/15/2014 6:40:52 PM,14:40:52,2.0.10.147,72,,,,,,18,1,18,,,,2,,,b,,0.252,,,8.47,,,30.11,,,,,,TrialProc1,,,,vowel 1,vowel 2,1,146,157755,Block2,b2_f0_8_47_f2_30_11_dur_0_252_num_357.wav,,,,
v4_BCL_f0,1,1,<?xml version="1.0"?>\n<Clock xmlns:dt="urn:schemas-microsoft-com:datatypes"><Description dt:dt="string">E-Prime Primary Realtime Clock</Description><StartTime><Timestamp dt:dt="int">0</Timestamp><DateUtc dt:dt="string">2014-09-15T18:40:51Z</DateUtc></StartTime><FrequencyChanges><FrequencyChange><Frequency dt:dt="r8">2327520000</Frequency><Timestamp dt:dt="r8">1593067813995</Timestamp><Current dt:dt="r8">0</Current><DateUtc dt:dt="string">2014-09-15T18:40:51Z</DateUtc></FrequencyChange></FrequencyChanges></Clock>\n,v4_BCL_f0-1-1,60.001,1.0.0.210,1,102995802,2.0.10.242,2.0.10.242,09-15-2014,9/15/2014 6:40:52 PM,14:40:52,2.0.10.147,73,,,,,,19,1,19,,,,1,,,b,,0.247,,,9.05,,,31.31,,,,,,TrialProc1,,,,vowel 1,vowel 2,1,202,158761,Block2,b1_f0_9_05_f2_31_31_dur_0_247_num_77.wav,,,,
v4_BCL_f0,1,1,<?xml version="1.0"?>\n<Clock xmlns:dt="urn:schemas-microsoft-com:datatypes"><Description dt:dt="string">E-Prime Primary Realtime Clock</Description><StartTime><Timestamp dt:dt="int">0</Timestamp><DateUtc dt:dt="string">2014-09-15T18:40:51Z</DateUtc></StartTime><FrequencyChanges><FrequencyChange><Frequency dt:dt="r8">2327520000</Frequency><Timestamp dt:dt="r8">1593067813995</Timestamp><Current dt:dt="r8">0</Current><DateUtc dt:dt="string">2014-09-15T18:40:51Z</DateUtc></FrequencyChange></FrequencyChanges></Clock>\n,v4_BCL_f0-1-1,60.001,1.0.0.210,1,102995802,2.0.10.242,2.0.10.242,09-15-2014,9/15/2014 6:40:52 PM,14:40:52,2.0.10.147,74,,,,,,20,1,20,,,,1,,,b,,0.246,,,9.8,,,30.67,,,,,,TrialProc1,,,,vowel 1,vowel 2,2,143,159719,Block2,b1_f0_9_80_f2_30_67_dur_0_246_num_12.wav,,,,
v4_BCL_f0,1,1,<?xml version="1.0"?>\n<Clock xmlns:dt="urn:schemas-microsoft-com:datatypes"><Description dt:dt="string">E-Prime Primary Realtime Clock</Description><StartTime><Timestamp dt:dt="int">0</Timestamp><DateUtc dt:dt="string">2014-09-15T18:40:51Z</DateUtc></StartTime><FrequencyChanges><FrequencyChange><Frequency dt:dt="r8">2327520000</Frequency><Timestamp dt:dt="r8">1593067813995</Timestamp><Current dt:dt="r8">0</Current><DateUtc dt:dt="string">2014-09-15T18:40:51Z</DateUtc></FrequencyChange></FrequencyChanges></Clock>\n,v4_BCL_f0-1-1,60.001,1.0.0.210,1,102995802,2.0.10.242,2.0.10.242,09-15-2014,9/15/2014 6:40:52 PM,14:40:52,2.0.10.147,75,,,,,,21,1,21,,,,1,,,b,,0.247,,,10.81,,,29.82,,,,,,TrialProc1,,,,vowel 1,vowel 2,2,165,160691,Block2,b1_f0_10_81_f2_29_82_dur_0_247_num_22.wav,,,,
v4_BCL_f0,1,1,<?xml version="1.0"?>\n<Clock xmlns:dt="urn:schemas-microsoft-com:datatypes"><Description dt:dt="string">E-Prime Primary Realtime Clock</Description><StartTime><Timestamp dt:dt="int">0</Timestamp><DateUtc dt:dt="string">2014-09-15T18:40:51Z</DateUtc></StartTime><FrequencyChanges><FrequencyChange><Frequency dt:dt="r8">2327520000</Frequency><Timestamp dt:dt="r8">1593067813995</Timestamp><Current dt:dt="r8">0</Current><DateUtc dt:dt="string">2014-09-15T18:40:51Z</DateUtc></FrequencyChange></FrequencyChanges></Clock>\n,v4_BCL_f0-1-1,60.001,1.0.0.210,1,102995802,2.0.10.242,2.0.10.242,09-15-2014,9/15/2014 6:40:52 PM,14:40:52,2.0.10.147,76,,,,,,22,1,22,,,,1,,,b,,0.256,,,10.41,,,30.51,,,,,,TrialProc1,,,,vowel 1,vowel 2,2,123,161616,Block2,b1_f0_10_41_f2_30_51_dur_0_256_num_35.wav,,,,
v4_BCL_f0,1,1,<?xml version="1.0"?>\n<Clock xmlns:dt="urn:schemas-microsoft-com:datatypes"><Description dt:dt="string">E-Prime Primary Realtime Clock</Description><StartTime><Timestamp dt:dt="int">0</Timestamp><DateUtc dt:dt="string">2014-09-15T18:40:51Z</DateUtc></StartTime><FrequencyChanges><FrequencyChange><Frequency dt:dt="r8">2327520000</Frequency><Timestamp dt:dt="r8">1593067813995</Timestamp><Current dt:dt="r8">0</Current><DateUtc dt:dt="string">2014-09-15T18:40:51Z</DateUtc></FrequencyChange></FrequencyChanges></Clock>\n,v4_BCL_f0-1-1,60.001,1.0.0.210,1,102995802,2.0.10.242,2.0.10.242,09-15-2014,9/15/2014 6:40:52 PM,14:40:52,2.0.10.147,77,,,,,,23,1,23,,,,2,,,b,,0.249,,,8.38,,,30.2,,,,,,TrialProc1,,,,vowel 1,vowel 2,1,198,162624,Block2,b2_f0_8_38_f2_30_20_dur_0_249_num_338.wav,,,,
v4_BCL_f0,1,1,<?xml version="1.0"?>\n<Clock xmlns:dt="urn:schemas-microsoft-com:datatypes"><Description dt:dt="string">E-Prime Primary Realtime Clock</Description><StartTime><Timestamp dt:dt="int">0</Timestamp><DateUtc dt:dt="string">2014-09-15T18:40:51Z</DateUtc></StartTime><FrequencyChanges><FrequencyChange><Frequency dt:dt="r8">2327520000</Frequency><Timestamp dt:dt="r8">1593067813995</Timestamp><Current dt:dt="r8">0</Current><DateUtc dt:dt="string">2014-09-15T18:40:51Z</DateUtc></FrequencyChange></FrequencyChanges></Clock>\n,v4_BCL_f0-1-1,60.001,1.0.0.210,1,102995802,2.0.10.242,2.0.10.242,09-15-2014,9/15/2014 6:40:52 PM,14:40:52,2.0.10.147,78,,,,,,24,1,24,,,,2,,,b,,0.253,,,9.4,,,29.72,,,,,,TrialProc1,,,,vowel 1,vowel 2,2,140,163566,Block2,b2_f0_9_40_f2_29_72_dur_0_253_num_343.wav,,,,
v4_BCL_f0,1,1,<?xml version="1.0"?>\n<Clock xmlns:dt="urn:schemas-microsoft-com:datatypes"><Description dt:dt="string">E-Prime Primary Realtime Clock</Description><StartTime><Timestamp dt:dt="int">0</Timestamp><DateUtc dt:dt="string">2014-09-15T18:40:51Z</DateUtc></StartTime><FrequencyChanges><FrequencyChange><Frequency dt:dt="r8">2327520000</Frequency><Timestamp dt:dt="r8">1593067813995</Timestamp><Current dt:dt="r8">0</Current><DateUtc dt:dt="string">2014-09-15T18:40:51Z</DateUtc></FrequencyChange></FrequencyChanges></Clock>\n,v4_BCL_f0-1-1,60.001,1.0.0.210,1,102995802,2.0.10.242,2.0.10.242,09-15-2014,9/15/2014 6:40:52 PM,14:40:52,2.0.10.147,79,,,,,,25,1,25,,,,1,,,b,,0.247,,,9.74,,,30.55,,,,,,TrialProc1,,,,vowel 1,vowel 2,2,143,164519,Block2,b1_f0_9_74_f2_30_55_dur_0_247_num_67.wav,,,,
v4_BCL_f0,1,1,<?xml version="1.0"?>\n<Clock xmlns:dt="urn:schemas-microsoft-com:datatypes"><Description dt:dt="string">E-Prime Primary Realtime Clock</Description><StartTime><Timestamp dt:dt="int">0</Timestamp><DateUtc dt:dt="string">2014-09-15T18:40:51Z</DateUtc></StartTime><FrequencyChanges><FrequencyChange><Frequency dt:dt="r8">2327520000</Frequency><Timestamp dt:dt="r8">1593067813995</Timestamp><Current dt:dt="r8">0</Current><DateUtc dt:dt="string">2014-09-15T18:40:51Z</DateUtc></FrequencyChange></FrequencyChanges></Clock>\n,v4_BCL_f0-1-1,60.001,1.0.0.210,1,102995802,2.0.10.242,2.0.10.242,09-15-2014,9/15/2014 6:40:52 PM,14:40:52,2.0.10.147,80,,,,,,26,1,26,,,,2,,,b,,0.248,,,8.15,,,30.24,,,,,,TrialProc1,,,,vowel 1,vowel 2,1,142,165484,Block2,b2_f0_8_15_f2_30_24_dur_0_248_num_322.wav,,,,
v4_BCL_f0,1,1,<?xml version="1.0"?>\n<Clock xmlns:dt="urn:schemas-microsoft-com:datatypes"><Description dt:dt="string">E-Prime Primary Realtime Clock</Description><StartTime><Timestamp dt:dt="int">0</Timestamp><DateUtc dt:dt="string">2014-09-15T18:40:51Z</DateUtc></StartTime><FrequencyChanges><FrequencyChange><Frequency dt:dt="r8">2327520000</Frequency><Timestamp dt:dt="r8">1593067813995</Timestamp><Current dt:dt="r8">0</Current><DateUtc dt:dt="string">2014-09-15T18:40:51Z</DateUtc></FrequencyChange></FrequencyChanges></Clock>\n,v4_BCL_f0-1-1,60.001,1.0.0.210,1,102995802,2.0.10.242,2.0.10.242,09-15-2014,9/15/2014 6:40:52 PM,14:40:52,2.0.10.147,81,,,,,,27,1,27,,,,2,,,b,,0.248,,,8.26,,,30.42,,,,,,TrialProc1,,,,vowel 1,vowel 2,1,142,166451,Block2,b2_f0_8_26_f2_30_42_dur_0_248_num_381.wav,,,,
v4_BCL_f0,1,1,<?xml version="1.0"?>\n<Clock xmlns:dt="urn:schemas-microsoft-com:datatypes"><Description dt:dt="string">E-Prime Primary Realtime Clock</Description><StartTime><Timestamp dt:dt="int">0</Timestamp><DateUtc dt:dt="string">2014-09-15T18:40:51Z</DateUtc></StartTime><FrequencyChanges><FrequencyChange><Frequency dt:dt="r8">2327520000</Frequency><Timestamp dt:dt="r8">1593067813995</Timestamp><Current dt:dt="r8">0</Current><DateUtc dt:dt="string">2014-09-15T18:40:51Z</DateUtc></FrequencyChange></FrequencyChanges></Clock>\n,v4_BCL_f0-1-1,60.001,1.0.0.210,1,102995802,2.0.10.242,2.0.10.242,09-15-2014,9/15/2014 6:40:52 PM,14:40:52,2.0.10.147,82,,,,,,28,1,28,,,,2,,,b,,0.253,,,9.17,,,29.98,,,,,,TrialProc1,,,,vowel 1,vowel 2,1,257,167516,Block2,b2_f0_9_17_f2_29_98_dur_0_253_num_312.wav,,,,
v4_BCL_f0,1,1,<?xml version="1.0"?>\n<Clock xmlns:dt="urn:schemas-microsoft-com:datatypes"><Description dt:dt="string">E-Prime Primary Realtime Clock</Description><StartTime><Timestamp dt:dt="int">0</Timestamp><DateUtc dt:dt="string">2014-09-15T18:40:51Z</DateUtc></StartTime><FrequencyChanges><FrequencyChange><Frequency dt:dt="r8">2327520000</Frequency><Timestamp dt:dt="r8">1593067813995</Timestamp><Current dt:dt="r8">0</Current><DateUtc dt:dt="string">2014-09-15T18:40:51Z</DateUtc></FrequencyChange></FrequencyChanges></Clock>\n,v4_BCL_f0-1-1,60.001,1.0.0.210,1,102995802,2.0.10.242,2.0.10.242,09-15-2014,9/15/2014 6:40:52 PM,14:40:52,2.0.10.147,83,,,,,,29,1,29,,,,2,,,b,,0.249,,,8.26,,,30.04,,,,,,TrialProc1,,,,vowel 1,vowel 2,2,157,168483,Block2,b2_f0_8_26_f2_30_04_dur_0_249_num_382.wav,,,,
v4_BCL_f0,1,1,<?xml version="1.0"?>\n<Clock xmlns:dt="urn:schemas-microsoft-com:datatypes"><Description dt:dt="string">E-Prime Primary Realtime Clock</Description><StartTime><Timestamp dt:dt="int">0</Timestamp><DateUtc dt:dt="string">2014-09-15T18:40:51Z</DateUtc></StartTime><FrequencyChanges><FrequencyChange><Frequency dt:dt="r8">2327520000</Frequency><Timestamp dt:dt="r8">1593067813995</Timestamp><Current dt:dt="r8">0</Current><DateUtc dt:dt="string">2014-09-15T18:40:51Z</DateUtc></FrequencyChange></FrequencyChanges></Clock>\n,v4_BCL_f0-1-1,60.001,1.0.0.210,1,102995802,2.0.10.242,2.0.10.242,09-15-2014,9/15/2014 6:40:52 PM,14:40:52,2.0.10.147,84,,,,,,30,1,30,,,,1,,,b,,0.25,,,10.13,,,30.92,,,,,,TrialProc1,,,,vowel 1,vowel 2,2,119,169411,Block2,b1_f0_10_13_f2_30_92_dur_0_250_num_92.wav,,,,
v4_BCL_f0,1,1,<?xml version="1.0"?>\n<Clock xmlns:dt="urn:schemas-microsoft-com:datatypes"><Description dt:dt="string">E-Prime Primary Realtime Clock</Description><StartTime><Timestamp dt:dt="int">0</Timestamp><DateUtc dt:dt="string">2014-09-15T18:40:51Z</DateUtc></StartTime><FrequencyChanges><FrequencyChange><Frequency dt:dt="r8">2327520000</Frequency><Timestamp dt:dt="r8">1593067813995</Timestamp><Current dt:dt="r8">0</Current><DateUtc dt:dt="string">2014-09-15T18:40:51Z</DateUtc></FrequencyChange></FrequencyChanges></Clock>\n,v4_BCL_f0-1-1,60.001,1.0.0.210,1,102995802,2.0.10.242,2.0.10.242,09-15-2014,9/15/2014 6:40:52 PM,14:40:52,2.0.10.147,85,,,,,,31,1,31,,,,2,,,b,,0.247,,,9.53,,,29.37,,,,,,TrialProc1,,,,vowel 1,vowel 2,1,171,170413,Block2,b2_f0_9_53_f2_29_37_dur_0_247_num_361.wav,,,,
v4_BCL_f0,1,1,<?xml version="1.0"?>\n<Clock xmlns:dt="urn:schemas-microsoft-com:datatypes"><Description dt:dt="string">E-Prime Primary Realtime Clock</Description><StartTime><Timestamp dt:dt="int">0</Timestamp><DateUtc dt:dt="string">2014-09-15T18:40:51Z</DateUtc></StartTime><FrequencyChanges><FrequencyChange><Frequency dt:dt="r8">2327520000</Frequency><Timestamp dt:dt="r8">1593067813995</Timestamp><Current dt:dt="r8">0</Current><DateUtc dt:dt="string">2014-09-15T18:40:51Z</DateUtc></FrequencyChange></FrequencyChanges></Clock>\n,v4_BCL_f0-1-1,60.001,1.0.0.210,1,102995802,2.0.10.242,2.0.10.242,09-15-2014,9/15/2014 6:40:52 PM,14:40:52,2.0.10.147,86,,,,,,32,1,32,,,,2,,,b,,0.253,,,8.7,,,29.44,,,,,,TrialProc1,,,,vowel 1,vowel 2,1,246,171472,Block2,b2_f0_8_70_f2_29_44_dur_0_253_num_384.wav,,,,
v4_BCL_f0,1,1,<?xml version="1.0"?>\n<Clock xmlns:dt="urn:schemas-microsoft-com:datatypes"><Description dt:dt="string">E-Prime Primary Realtime Clock</Description><StartTime><Timestamp dt:dt="int">0</Timestamp><DateUtc dt:dt="string">2014-09-15T18:40:51Z</DateUtc></StartTime><FrequencyChanges><FrequencyChange><Frequency dt:dt="r8">2327520000</Frequency><Timestamp dt:dt="r8">1593067813995</Timestamp><Current dt:dt="r8">0</Current><DateUtc dt:dt="string">2014-09-15T18:40:51Z</DateUtc></FrequencyChange></FrequencyChanges></Clock>\n,v4_BCL_f0-1-1,60.001,1.0.0.210,1,102995802,2.0.10.242,2.0.10.242,09-15-2014,9/15/2014 6:40:52 PM,14:40:52,2.0.10.147,87,,,,,,33,1,33,,,,1,,,b,,0.251,,,10.47,,,29.52,,,,,,TrialProc1,,,,vowel 1,vowel 2,1,163,172455,Block2,b1_f0_10_47_f2_29_52_dur_0_251_num_89.wav,,,,
v4_BCL_f0,1,1,<?xml version="1.0"?>\n<Clock xmlns:dt="urn:schemas-microsoft-com:datatypes"><Description dt:dt="string">E-Prime Primary Realtime Clock</Description><StartTime><Timestamp dt:dt="int">0</Timestamp><DateUtc dt:dt="string">2014-09-15T18:40:51Z</DateUtc></StartTime><FrequencyChanges><FrequencyChange><Frequency dt:dt="r8">2327520000</Frequency><Timestamp dt:dt="r8">1593067813995</Timestamp><Current dt:dt="r8">0</Current><DateUtc dt:dt="string">2014-09-15T18:40:51Z</DateUtc></FrequencyChange></FrequencyChanges></Clock>\n,v4_BCL_f0-1-1,60.001,1.0.0.210,1,102995802,2.0.10.242,2.0.10.242,09-15-2014,9/15/2014 6:40:52 PM,14:40:52,2.0.10.147,88,,,,,,34,1,34,,,,2,,,b,,0.251,,,8.72,,,29.25,,,,,,TrialProc1,,,,vowel 1,vowel 2,1,185,173444,Block2,b2_f0_8_72_f2_29_25_dur_0_251_num_377.wav,,,,
v4_BCL_f0,1,1,<?xml version="1.0"?>\n<Clock xmlns:dt="urn:schemas-microsoft-com:datatypes"><Description dt:dt="string">E-Prime Primary Realtime Clock</Description><StartTime><Timestamp dt:dt="int">0</Timestamp><DateUtc dt:dt="string">2014-09-15T18:40:51Z</DateUtc></StartTime><FrequencyChanges><FrequencyChange><Frequency dt:dt="r8">2327520000</Frequency><Timestamp dt:dt="r8">1593067813995</Timestamp><Current dt:dt="r8">0</Current><DateUtc dt:dt="string">2014-09-15T18:40:51Z</DateUtc></FrequencyChange></FrequencyChanges></Clock>\n,v4_BCL_f0-1-1,60.001,1.0.0.210,1,102995802,2.0.10.242,2.0.10.242,09-15-2014,9/15/2014 6:40:52 PM,14:40:52,2.0.10.147,89,,,,,,35,1,35,,,,2,,,b,,0.251,,,9.77,,,28.56,,,,,,TrialProc1,,,,vowel 1,vowel 2,1,216,174475,Block2,b2_f0_9_77_f2_28_56_dur_0_251_num_395.wav,,,,
v4_BCL_f0,1,1,<?xml version="1.0"?>\n<Clock xmlns:dt="urn:schemas-microsoft-com:datatypes"><Description dt:dt="string">E-Prime Primary Realtime Clock</Description><StartTime><Timestamp dt:dt="int">0</Timestamp><DateUtc dt:dt="string">2014-09-15T18:40:51Z</DateUtc></StartTime><FrequencyChanges><FrequencyChange><Frequency dt:dt="r8">2327520000</Frequency><Timestamp dt:dt="r8">1593067813995</Timestamp><Current dt:dt="r8">0</Current><DateUtc dt:dt="string">2014-09-15T18:40:51Z</DateUtc></FrequencyChange></FrequencyChanges></Clock>\n,v4_BCL_f0-1-1,60.001,1.0.0.210,1,102995802,2.0.10.242,2.0.10.242,09-15-2014,9/15/2014 6:40:52 PM,14:40:52,2.0.10.147,90,,,,,,36,1,36,,,,2,,,b,,0.248,,,9.1,,,30.14,,,,,,TrialProc1,,,,vowel 1,vowel 2,2,247,175523,Block2,b2_f0_9_10_f2_30_14_dur_0_248_num_326.wav,,,,
v4_BCL_f0,1,1,<?xml version="1.0"?>\n<Clock xmlns:dt="urn:schemas-microsoft-com:datatypes"><Description dt:dt="string">E-Prime Primary Realtime Clock</Description><StartTime><Timestamp dt:dt="int">0</Timestamp><DateUtc dt:dt="string">2014-09-15T18:40:51Z</DateUtc></StartTime><FrequencyChanges><FrequencyChange><Frequency dt:dt="r8">2327520000</Frequency><Timestamp dt:dt="r8">1593067813995</Timestamp><Current dt:dt="r8">0</Current><DateUtc dt:dt="string">2014-09-15T18:40:51Z</DateUtc></FrequencyChange></FrequencyChanges></Clock>\n,v4_BCL_f0-1-1,60.001,1.0.0.210,1,102995802,2.0.10.242,2.0.10.242,09-15-2014,9/15/2014 6:40:52 PM,14:40:52,2.0.10.147,91,,,,,,37,1,37,,,,2,,,b,,0.251,,,7.84,,,30.39,,,,,,TrialProc1,,,,vowel 1,vowel 2,1,129,176471,Block2,b2_f0_7_84_f2_30_39_dur_0_251_num_393.wav,,,,
v4_BCL_f0,1,1,<?xml version="1.0"?>\n<Clock xmlns:dt="urn:schemas-microsoft-com:datatypes"><Description dt:dt="string">E-Prime Primary Realtime Clock</Description><StartTime><Timestamp dt:dt="int">0</Timestamp><DateUtc dt:dt="string">2014-09-15T18:40:51Z</DateUtc></StartTime><FrequencyChanges><FrequencyChange><Frequency dt:dt="r8">2327520000</Frequency><Timestamp dt:dt="r8">1593067813995</Timestamp><Current dt:dt="r8">0</Current><DateUtc dt:dt="string">2014-09-15T18:40:51Z</DateUtc></FrequencyChange></FrequencyChanges></Clock>\n,v4_BCL_f0-1-1,60.001,1.0.0.210,1,102995802,2.0.10.242,2.0.10.242,09-15-2014,9/15/2014 6:40:52 PM,14:40:52,2.0.10.147,92,,,,,,38,1,38,,,,1,,,b,,0.257,,,9.74,,,29.99,,,,,,TrialProc1,,,,vowel 1,vowel 2,2,130,177406,Block2,b1_f0_9_74_f2_29_99_dur_0_257_num_3.wav,,,,
v4_BCL_f0,1,1,<?xml version="1.0"?>\n<Clock xmlns:dt="urn:schemas-microsoft-com:datatypes"><Description dt:dt="string">E-Prime Primary Realtime Clock</Description><StartTime><Timestamp dt:dt="int">0</Timestamp><DateUtc dt:dt="string">2014-09-15T18:40:51Z</DateUtc></StartTime><FrequencyChanges><FrequencyChange><Frequency dt:dt="r8">2327520000</Frequency><Timestamp dt:dt="r8">1593067813995</Timestamp><Current dt:dt="r8">0</Current><DateUtc dt:dt="string">2014-09-15T18:40:51Z</DateUtc></FrequencyChange></FrequencyChanges></Clock>\n,v4_BCL_f0-1-1,60.001,1.0.0.210,1,102995802,2.0.10.242,2.0.10.242,09-15-2014,9/15/2014 6:40:52 PM,14:40:52,2.0.10.147,93,,,,,,39,1,39,,,,1,,,b,,0.252,,,9.34,,,30.82,,,,,,TrialProc1,,,,vowel 1,vowel 2,1,260,178469,Block2,b1_f0_9_34_f2_30_82_dur_0_252_num_91.wav,,,,
v4_BCL_f0,1,1,<?xml version="1.0"?>\n<Clock xmlns:dt="urn:schemas-microsoft-com:datatypes"><Description dt:dt="string">E-Prime Primary Realtime Clock</Description><StartTime><Timestamp dt:dt="int">0</Timestamp><DateUtc dt:dt="string">2014-09-15T18:40:51Z</DateUtc></StartTime><FrequencyChanges><FrequencyChange><Frequency dt:dt="r8">2327520000</Frequency><Timestamp dt:dt="r8">1593067813995</Timestamp><Current dt:dt="r8">0</Current><DateUtc dt:dt="string">2014-09-15T18:40:51Z</DateUtc></FrequencyChange></FrequencyChanges></Clock>\n,v4_BCL_f0-1-1,60.001,1.0.0.210,1,102995802,2.0.10.242,2.0.10.242,09-15-2014,9/15/2014 6:40:52 PM,14:40:52,2.0.10.147,94,,,,,,40,1,40,,,,2,,,b,,0.244,,,7.89,,,30.02,,,,,,TrialProc1,,,,vowel 1,vowel 2,1,140,179416,Block2,b2_f0_7_89_f2_30_02_dur_0_244_num_373.wav,,,,
v4_BCL_f0,1,1,<?xml version="1.0"?>\n<Clock xmlns:dt="urn:schemas-microsoft-com:datatypes"><Description dt:dt="string">E-Prime Primary Realtime Clock</Description><StartTime><Timestamp dt:dt="int">0</Timestamp><DateUtc dt:dt="string">2014-09-15T18:40:51Z</DateUtc></StartTime><FrequencyChanges><FrequencyChange><Frequency dt:dt="r8">2327520000</Frequency><Timestamp dt:dt="r8">1593067813995</Timestamp><Current dt:dt="r8">0</Current><DateUtc dt:dt="string">2014-09-15T18:40:51Z</DateUtc></FrequencyChange></FrequencyChanges></Clock>\n,v4_BCL_f0-1-1,60.001,1.0.0.210,1,102995802,2.0.10.242,2.0.10.242,09-15-2014,9/15/2014 6:40:52 PM,14:40:52,2.0.10.147,95,,,,,,41,1,41,,,,2,,,b,,0.249,,,8.93,,,29.68,,,,,,TrialProc1,,,,vowel 1,vowel 2,1,238,180464,Block2,b2_f0_8_93_f2_29_68_dur_0_249_num_324.wav,,,,
v4_BCL_f0,1,1,<?xml version="1.0"?>\n<Clock xmlns:dt="urn:schemas-microsoft-com:datatypes"><Description dt:dt="string">E-Prime Primary Realtime Clock</Description><StartTime><Timestamp dt:dt="int">0</Timestamp><DateUtc dt:dt="string">2014-09-15T18:40:51Z</DateUtc></StartTime><FrequencyChanges><FrequencyChange><Frequency dt:dt="r8">2327520000</Frequency><Timestamp dt:dt="r8">1593067813995</Timestamp><Current dt:dt="r8">0</Current><DateUtc dt:dt="string">2014-09-15T18:40:51Z</DateUtc></FrequencyChange></FrequencyChanges></Clock>\n,v4_BCL_f0-1-1,60.001,1.0.0.210,1,102995802,2.0.10.242,2.0.10.242,09-15-2014,9/15/2014 6:40:52 PM,14:40:52,2.0.10.147,96,,,,,,42,1,42,,,,2,,,b,,0.248,,,8.18,,,30.33,,,,,,TrialProc1,,,,vowel 1,vowel 2,1,168,181444,Block2,b2_f0_8_18_f2_30_33_dur_0_248_num_372.wav,,,,
v4_BCL_f0,1,1,<?xml version="1.0"?>\n<Clock xmlns:dt="urn:schemas-microsoft-com:datatypes"><Description dt:dt="string">E-Prime Primary Realtime Clock</Description><StartTime><Timestamp dt:dt="int">0</Timestamp><DateUtc dt:dt="string">2014-09-15T18:40:51Z</DateUtc></StartTime><FrequencyChanges><FrequencyChange><Frequency dt:dt="r8">2327520000</Frequency><Timestamp dt:dt="r8">1593067813995</Timestamp><Current dt:dt="r8">0</Current><DateUtc dt:dt="string">2014-09-15T18:40:51Z</DateUtc></FrequencyChange></FrequencyChanges></Clock>\n,v4_BCL_f0-1-1,60.001,1.0.0.210,1,102995802,2.0.10.242,2.0.10.242,09-15-2014,9/15/2014 6:40:52 PM,14:40:52,2.0.10.147,97,,,,,,43,1,43,,,,2,,,b,,0.246,,,9.83,,,29.05,,,,,,TrialProc1,,,,vowel 1,vowel 2,1,149,182408,Block2,b2_f0_9_83_f2_29_05_dur_0_246_num_328.wav,,,,
v4_BCL_f0,1,1,<?xml version="1.0"?>\n<Clock xmlns:dt="urn:schemas-microsoft-com:datatypes"><Description dt:dt="string">E-Prime Primary Realtime Clock</Description><StartTime><Timestamp dt:dt="int">0</Timestamp><DateUtc dt:dt="string">2014-09-15T18:40:51Z</DateUtc></StartTime><FrequencyChanges><FrequencyChange><Frequency dt:dt="r8">2327520000</Frequency><Timestamp dt:dt="r8">1593067813995</Timestamp><Current dt:dt="r8">0</Current><DateUtc dt:dt="string">2014-09-15T18:40:51Z</DateUtc></FrequencyChange></FrequencyChanges></Clock>\n,v4_BCL_f0-1-1,60.001,1.0.0.210,1,102995802,2.0.10.242,2.0.10.242,09-15-2014,9/15/2014 6:40:52 PM,14:40:52,2.0.10.147,98,,,,,,44,1,44,,,,1,,,b,,0.25,,,9.8,,,30.81,,,,,,TrialProc1,,,,vowel 1,vowel 2,2,282,183508,Block2,b1_f0_9_80_f2_30_81_dur_0_250_num_15.wav,,,,
v4_BCL_f0,1,1,<?xml version="1.0"?>\n<Clock xmlns:dt="urn:schemas-microsoft-com:datatypes"><Description dt:dt="string">E-Prime Primary Realtime Clock</Description><StartTime><Timestamp dt:dt="int">0</Timestamp><DateUtc dt:dt="string">2014-09-15T18:40:51Z</DateUtc></StartTime><FrequencyChanges><FrequencyChange><Frequency dt:dt="r8">2327520000</Frequency><Timestamp dt:dt="r8">1593067813995</Timestamp><Current dt:dt="r8">0</Current><DateUtc dt:dt="string">2014-09-15T18:40:51Z</DateUtc></FrequencyChange></FrequencyChanges></Clock>\n,v4_BCL_f0-1-1,60.001,1.0.0.210,1,102995802,2.0.10.242,2.0.10.242,09-15-2014,9/15/2014 6:40:52 PM,14:40:52,2.0.10.147,99,,,,,,45,1,45,,,,2,,,b,,0.25,,,8.9,,,29.53,,,,,,TrialProc1,,,,vowel 1,vowel 2,1,229,184538,Block2,b2_f0_8_90_f2_29_53_dur_0_250_num_380.wav,,,,
v4_BCL_f0,1,1,<?xml version="1.0"?>\n<Clock xmlns:dt="urn:schemas-microsoft-com:datatypes"><Description dt:dt="string">E-Prime Primary Realtime Clock</Description><StartTime><Timestamp dt:dt="int">0</Timestamp><DateUtc dt:dt="string">2014-09-15T18:40:51Z</DateUtc></StartTime><FrequencyChanges><FrequencyChange><Frequency dt:dt="r8">2327520000</Frequency><Timestamp dt:dt="r8">1593067813995</Timestamp><Current dt:dt="r8">0</Current><DateUtc dt:dt="string">2014-09-15T18:40:51Z</DateUtc></FrequencyChange></FrequencyChanges></Clock>\n,v4_BCL_f0-1-1,60.001,1.0.0.210,1,102995802,2.0.10.242,2.0.10.242,09-15-2014,9/15/2014 6:40:52 PM,14:40:52,2.0.10.147,100,,,,,,46,1,46,,,,1,,,b,,0.254,,,8.91,,,31.52,,,,,,TrialProc1,,,,vowel 1,vowel 2,2,378,185720,Block2,b1_f0_8_91_f2_31_52_dur_0_254_num_69.wav,,,,
v4_BCL_f0,1,1,<?xml version="1.0"?>\n<Clock xmlns:dt="urn:schemas-microsoft-com:datatypes"><Description dt:dt="string">E-Prime Primary Realtime Clock</Description><StartTime><Timestamp dt:dt="int">0</Timestamp><DateUtc dt:dt="string">2014-09-15T18:40:51Z</DateUtc></StartTime><FrequencyChanges><FrequencyChange><Frequency dt:dt="r8">2327520000</Frequency><Timestamp dt:dt="r8">1593067813995</Timestamp><Current dt:dt="r8">0</Current><DateUtc dt:dt="string">2014-09-15T18:40:51Z</DateUtc></FrequencyChange></FrequencyChanges></Clock>\n,v4_BCL_f0-1-1,60.001,1.0.0.210,1,102995802,2.0.10.242,2.0.10.242,09-15-2014,9/15/2014 6:40:52 PM,14:40:52,2.0.10.147,101,,,,,,47,1,47,,,,1,,,b,,0.253,,,9.54,,,30.44,,,,,,TrialProc1,,,,vowel 1,vowel 2,1,642,187184,Block2,b1_f0_9_54_f2_30_44_dur_0_253_num_96.wav,,,,
v4_BCL_f0,1,1,<?xml version="1.0"?>\n<Clock xmlns:dt="urn:schemas-microsoft-com:datatypes"><Description dt:dt="string">E-Prime Primary Realtime Clock</Description><StartTime><Timestamp dt:dt="int">0</Timestamp><DateUtc dt:dt="string">2014-09-15T18:40:51Z</DateUtc></StartTime><FrequencyChanges><FrequencyChange><Frequency dt:dt="r8">2327520000</Frequency><Timestamp dt:dt="r8">1593067813995</Timestamp><Current dt:dt="r8">0</Current><DateUtc dt:dt="string">2014-09-15T18:40:51Z</DateUtc></FrequencyChange></FrequencyChanges></Clock>\n,v4_BCL_f0-1-1,60.001,1.0.0.210,1,102995802,2.0.10.242,2.0.10.242,09-15-2014,9/15/2014 6:40:52 PM,14:40:52,2.0.10.147,102,,,,,,48,1,48,,,,1,,,b,,0.249,,,11.02,,,29.36,,,,,,TrialProc1,,,,vowel 1,vowel 2,2,127,188119,Block2,b1_f0_11_02_f2_29_36_dur_0_249_num_75.wav,,,,
v4_BCL_f0,1,1,<?xml version="1.0"?>\n<Clock xmlns:dt="urn:schemas-microsoft-com:datatypes"><Description dt:dt="string">E-Prime Primary Realtime Clock</Description><StartTime><Timestamp dt:dt="int">0</Timestamp><DateUtc dt:dt="string">2014-09-15T18:40:51Z</DateUtc></StartTime><FrequencyChanges><FrequencyChange><Frequency dt:dt="r8">2327520000</Frequency><Timestamp dt:dt="r8">1593067813995</Timestamp><Current dt:dt="r8">0</Current><DateUtc dt:dt="string">2014-09-15T18:40:51Z</DateUtc></FrequencyChange></FrequencyChanges></Clock>\n,v4_BCL_f0-1-1,60.001,1.0.0.210,1,102995802,2.0.10.242,2.0.10.242,09-15-2014,9/15/2014 6:40:52 PM,14:40:52,2.0.10.147,103,,,,,,49,1,49,,,,1,,,b,,0.248,,,10.32,,,30.12,,,,,,TrialProc1,,,,vowel 1,vowel 2,2,82,189007,Block2,b1_f0_10_32_f2_30_12_dur_0_248_num_10.wav,,,,
v4_BCL_f0,1,1,<?xml version="1.0"?>\n<Clock xmlns:dt="urn:schemas-microsoft-com:datatypes"><Description dt:dt="string">E-Prime Primary Realtime Clock</Description><StartTime><Timestamp dt:dt="int">0</Timestamp><DateUtc dt:dt="string">2014-09-15T18:40:51Z</DateUtc></StartTime><FrequencyChanges><FrequencyChange><Frequency dt:dt="r8">2327520000</Frequency><Timestamp dt:dt="r8">1593067813995</Timestamp><Current dt:dt="r8">0</Current><DateUtc dt:dt="string">2014-09-15T18:40:51Z</DateUtc></FrequencyChange></FrequencyChanges></Clock>\n,v4_BCL_f0-1-1,60.001,1.0.0.210,1,102995802,2.0.10.242,2.0.10.242,09-15-2014,9/15/2014 6:40:52 PM,14:40:52,2.0.10.147,104,,,,,,50,1,50,,,,1,,,b,,0.246,,,8.09,,,32.4,,,,,,TrialProc1,,,,vowel 1,vowel 2,1,55,189880,Block2,b1_f0_8_09_f2_32_40_dur_0_246_num_39.wav,,,,
v4_BCL_f0,1,1,<?xml version="1.0"?>\n<Clock xmlns:dt="urn:schemas-microsoft-com:datatypes"><Description dt:dt="string">E-Prime Primary Realtime Clock</Description><StartTime><Timestamp dt:dt="int">0</Timestamp><DateUtc dt:dt="string">2014-09-15T18:40:51Z</DateUtc></StartTime><FrequencyChanges><FrequencyChange><Frequency dt:dt="r8">2327520000</Frequency><Timestamp dt:dt="r8">1593067813995</Timestamp><Current dt:dt="r8">0</Current><DateUtc dt:dt="string">2014-09-15T18:40:51Z</DateUtc></FrequencyChange></FrequencyChanges></Clock>\n,v4_BCL_f0-1-1,60.001,1.0.0.210,1,102995802,2.0.10.242,2.0.10.242,09-15-2014,9/15/2014 6:40:52 PM,14:40:52,2.0.10.147,105,,,,,,51,1,51,,,,1,,,b,,0.25,,,10.33,,,29.93,,,,,,TrialProc1,,,,vowel 1,vowel 2,1,455,191147,Block2,b1_f0_10_33_f2_29_93_dur_0_250_num_98.wav,,,,
v4_BCL_f0,1,1,<?xml version="1.0"?>\n<Clock xmlns:dt="urn:schemas-microsoft-com:datatypes"><Description dt:dt="string">E-Prime Primary Realtime Clock</Description><StartTime><Timestamp dt:dt="int">0</Timestamp><DateUtc dt:dt="string">2014-09-15T18:40:51Z</DateUtc></StartTime><FrequencyChanges><FrequencyChange><Frequency dt:dt="r8">2327520000</Frequency><Timestamp dt:dt="r8">1593067813995</Timestamp><Current dt:dt="r8">0</Current><DateUtc dt:dt="string">2014-09-15T18:40:51Z</DateUtc></FrequencyChange></FrequencyChanges></Clock>\n,v4_BCL_f0-1-1,60.001,1.0.0.210,1,102995802,2.0.10.242,2.0.10.242,09-15-2014,9/15/2014 6:40:52 PM,14:40:52,2.0.10.147,106,,,,,,52,1,52,,,,1,,,b,,0.248,,,10.08,,,31.24,,,,,,TrialProc1,,,,vowel 1,vowel 2,1,116,192075,Block2,b1_f0_10_08_f2_31_24_dur_0_248_num_25.wav,,,,
v4_BCL_f0,1,1,<?xml version="1.0"?>\n<Clock xmlns:dt="urn:schemas-microsoft-com:datatypes"><Description dt:dt="string">E-Prime Primary Realtime Clock</Description><StartTime><Timestamp dt:dt="int">0</Timestamp><DateUtc dt:dt="string">2014-09-15T18:40:51Z</DateUtc></StartTime><FrequencyChanges><FrequencyChange><Frequency dt:dt="r8">2327520000</Frequency><Timestamp dt:dt="r8">1593067813995</Timestamp><Current dt:dt="r8">0</Current><DateUtc dt:dt="string">2014-09-15T18:40:51Z</DateUtc></FrequencyChange></FrequencyChanges></Clock>\n,v4_BCL_f0-1-1,60.001,1.0.0.210,1,102995802,2.0.10.242,2.0.10.242,09-15-2014,9/15/2014 6:40:52 PM,14:40:52,2.0.10.147,107,,,,,,53,1,53,,,,2,,,b,,0.243,,,9.74,,,28.78,,,,,,TrialProc1,,,,vowel 1,vowel 2,1,296,193188,Block2,b2_f0_9_74_f2_28_78_dur_0_243_num_329.wav,,,,
v4_BCL_f0,1,1,<?xml version="1.0"?>\n<Clock xmlns:dt="urn:schemas-microsoft-com:datatypes"><Description dt:dt="string">E-Prime Primary Realtime Clock</Description><StartTime><Timestamp dt:dt="int">0</Timestamp><DateUtc dt:dt="string">2014-09-15T18:40:51Z</DateUtc></StartTime><FrequencyChanges><FrequencyChange><Frequency dt:dt="r8">2327520000</Frequency><Timestamp dt:dt="r8">1593067813995</Timestamp><Current dt:dt="r8">0</Current><DateUtc dt:dt="string">2014-09-15T18:40:51Z</DateUtc></FrequencyChange></FrequencyChanges></Clock>\n,v4_BCL_f0-1-1,60.001,1.0.0.210,1,102995802,2.0.10.242,2.0.10.242,09-15-2014,9/15/2014 6:40:52 PM,14:40:52,2.0.10.147,108,,,,,,54,1,54,,,,2,,,b,,0.252,,,8.5,,,29.87,,,,,,TrialProc1,,,,vowel 1,vowel 2,1,80,194072,Block2,b2_f0_8_50_f2_29_87_dur_0_252_num_325.wav,,,,
v4_BCL_f0,1,1,<?xml version="1.0"?>\n<Clock xmlns:dt="urn:schemas-microsoft-com:datatypes"><Description dt:dt="string">E-Prime Primary Realtime Clock</Description><StartTime><Timestamp dt:dt="int">0</Timestamp><DateUtc dt:dt="string">2014-09-15T18:40:51Z</DateUtc></StartTime><FrequencyChanges><FrequencyChange><Frequency dt:dt="r8">2327520000</Frequency><Timestamp dt:dt="r8">1593067813995</Timestamp><Current dt:dt="r8">0</Current><DateUtc dt:dt="string">2014-09-15T18:40:51Z</DateUtc></FrequencyChange></FrequencyChanges></Clock>\n,v4_BCL_f0-1-1,60.001,1.0.0.210,1,102995802,2.0.10.242,2.0.10.242,09-15-2014,9/15/2014 6:40:52 PM,14:40:52,2.0.10.147,109,,,,,,55,1,55,,,,2,,,b,,0.252,,,8.02,,,30.41,,,,,,TrialProc1,,,,vowel 1,vowel 2,1,110,194985,Block2,b2_f0_8_02_f2_30_41_dur_0_252_num_304.wav,,,,
v4_BCL_f0,1,1,<?xml version="1.0"?>\n<Clock xmlns:dt="urn:schemas-microsoft-com:datatypes"><Description dt:dt="string">E-Prime Primary Realtime Clock</Description><StartTime><Timestamp dt:dt="int">0</Timestamp><DateUtc dt:dt="string">2014-09-15T18:40:51Z</DateUtc></StartTime><FrequencyChanges><FrequencyChange><Frequency dt:dt="r8">2327520000</Frequency><Timestamp dt:dt="r8">1593067813995</Timestamp><Current dt:dt="r8">0</Current><DateUtc dt:dt="string">2014-09-15T18:40:51Z</DateUtc></FrequencyChange></FrequencyChanges></Clock>\n,v4_BCL_f0-1-1,60.001,1.0.0.210,1,102995802,2.0.10.242,2.0.10.242,09-15-2014,9/15/2014 6:40:52 PM,14:40:52,2.0.10.147,110,,,,,,56,1,56,,,,2,,,b,,0.249,,,8.24,,,30.16,,,,,,TrialProc1,,,,vowel 1,vowel 2,1,70,195862,Block2,b2_f0_8_24_f2_30_16_dur_0_249_num_316.wav,,,,
v4_BCL_f0,1,1,<?xml version="1.0"?>\n<Clock xmlns:dt="urn:schemas-microsoft-com:datatypes"><Description dt:dt="string">E-Prime Primary Realtime Clock</Description><StartTime><Timestamp dt:dt="int">0</Timestamp><DateUtc dt:dt="string">2014-09-15T18:40:51Z</DateUtc></StartTime><FrequencyChanges><FrequencyChange><Frequency dt:dt="r8">2327520000</Frequency><Timestamp dt:dt="r8">1593067813995</Timestamp><Current dt:dt="r8">0</Current><DateUtc dt:dt="string">2014-09-15T18:40:51Z</DateUtc></FrequencyChange></FrequencyChanges></Clock>\n,v4_BCL_f0-1-1,60.001,1.0.0.210,1,102995802,2.0.10.242,2.0.10.242,09-15-2014,9/15/2014 6:40:52 PM,14:40:52,2.0.10.147,111,,,,,,57,1,57,,,,1,,,b,,0.25,,,9.75,,,30.59,,,,,,TrialProc1,,,,vowel 1,vowel 2,2,80,196755,Block2,b1_f0_9_75_f2_30_59_dur_0_250_num_82.wav,,,,
v4_BCL_f0,1,1,<?xml version="1.0"?>\n<Clock xmlns:dt="urn:schemas-microsoft-com:datatypes"><Description dt:dt="string">E-Prime Primary Realtime Clock</Description><StartTime><Timestamp dt:dt="int">0</Timestamp><DateUtc dt:dt="string">2014-09-15T18:40:51Z</DateUtc></StartTime><FrequencyChanges><FrequencyChange><Frequency dt:dt="r8">2327520000</Frequency><Timestamp dt:dt="r8">1593067813995</Timestamp><Current dt:dt="r8">0</Current><DateUtc dt:dt="string">2014-09-15T18:40:51Z</DateUtc></FrequencyChange></FrequencyChanges></Clock>\n,v4_BCL_f0-1-1,60.001,1.0.0.210,1,102995802,2.0.10.242,2.0.10.242,09-15-2014,9/15/2014 6:40:52 PM,14:40:52,2.0.10.147,112,,,,,,58,1,58,,,,2,,,b,,0.243,,,8.72,,,30.29,,,,,,TrialProc1,,,,vowel 1,vowel 2,1,125,197700,Block2,b2_f0_8_72_f2_30_29_dur_0_243_num_350.wav,,,,
v4_BCL_f0,1,1,<?xml version="1.0"?>\n<Clock xmlns:dt="urn:schemas-microsoft-com:datatypes"><Description dt:dt="string">E-Prime Primary Realtime Clock</Description><StartTime><Timestamp dt:dt="int">0</Timestamp><DateUtc dt:dt="string">2014-09-15T18:40:51Z</DateUtc></StartTime><FrequencyChanges><FrequencyChange><Frequency dt:dt="r8">2327520000</Frequency><Timestamp dt:dt="r8">1593067813995</Timestamp><Current dt:dt="r8">0</Current><DateUtc dt:dt="string">2014-09-15T18:40:51Z</DateUtc></FrequencyChange></FrequencyChanges></Clock>\n,v4_BCL_f0-1-1,60.001,1.0.0.210,1,102995802,2.0.10.242,2.0.10.242,09-15-2014,9/15/2014 6:40:52 PM,14:40:52,2.0.10.147,113,,,,,,59,1,59,,,,2,,,b,,0.249,,,8.36,,,29.92,,,,,,TrialProc1,,,,vowel 1,vowel 2,1,118,198627,Block2,b2_f0_8_36_f2_29_92_dur_0_249_num_364.wav,,,,
v4_BCL_f0,1,1,<?xml version="1.0"?>\n<Clock xmlns:dt="urn:schemas-microsoft-com:datatypes"><Description dt:dt="string">E-Prime Primary Realtime Clock</Description><StartTime><Timestamp dt:dt="int">0</Timestamp><DateUtc dt:dt="string">2014-09-15T18:40:51Z</DateUtc></StartTime><FrequencyChanges><FrequencyChange><Frequency dt:dt="r8">2327520000</Frequency><Timestamp dt:dt="r8">1593067813995</Timestamp><Current dt:dt="r8">0</Current><DateUtc dt:dt="string">2014-09-15T18:40:51Z</DateUtc></FrequencyChange></FrequencyChanges></Clock>\n,v4_BCL_f0-1-1,60.001,1.0.0.210,1,102995802,2.0.10.242,2.0.10.242,09-15-2014,9/15/2014 6:40:52 PM,14:40:52,2.0.10.147,114,,,,,,60,1,60,,,,1,,,b,,0.251,,,11.18,,,29.71,,,,,,TrialProc1,,,,vowel 1,vowel 2,2,144,199586,Block2,b1_f0_11_18_f2_29_71_dur_0_251_num_38.wav,,,,
v4_BCL_f0,1,1,<?xml version="1.0"?>\n<Clock xmlns:dt="urn:schemas-microsoft-com:datatypes"><Description dt:dt="string">E-Prime Primary Realtime Clock</Description><StartTime><Timestamp dt:dt="int">0</Timestamp><DateUtc dt:dt="string">2014-09-15T18:40:51Z</DateUtc></StartTime><FrequencyChanges><FrequencyChange><Frequency dt:dt="r8">2327520000</Frequency><Timestamp dt:dt="r8">1593067813995</Timestamp><Current dt:dt="r8">0</Current><DateUtc dt:dt="string">2014-09-15T18:40:51Z</DateUtc></FrequencyChange></FrequencyChanges></Clock>\n,v4_BCL_f0-1-1,60.001,1.0.0.210,1,102995802,2.0.10.242,2.0.10.242,09-15-2014,9/15/2014 6:40:52 PM,14:40:52,2.0.10.147,115,,,,,,61,1,61,,,,1,,,b,,0.251,,,9.14,,,31.17,,,,,,TrialProc1,,,,vowel 1,vowel 2,1,107,200499,Block2,b1_f0_9_14_f2_31_17_dur_0_251_num_85.wav,,,,
v4_BCL_f0,1,1,<?xml version="1.0"?>\n<Clock xmlns:dt="urn:schemas-microsoft-com:datatypes"><Description dt:dt="string">E-Prime Primary Realtime Clock</Description><StartTime><Timestamp dt:dt="int">0</Timestamp><DateUtc dt:dt="string">2014-09-15T18:40:51Z</DateUtc></StartTime><FrequencyChanges><FrequencyChange><Frequency dt:dt="r8">2327520000</Frequency><Timestamp dt:dt="r8">1593067813995</Timestamp><Current dt:dt="r8">0</Current><DateUtc dt:dt="string">2014-09-15T18:40:51Z</DateUtc></FrequencyChange></FrequencyChanges></Clock>\n,v4_BCL_f0-1-1,60.001,1.0.0.210,1,102995802,2.0.10.242,2.0.10.242,09-15-2014,9/15/2014 6:40:52 PM,14:40:52,2.0.10.147,116,,,,,,62,1,62,,,,1,,,b,,0.249,,,9.59,,,30.34,,,,,,TrialProc1,,,,vowel 1,vowel 2,1,125,201434,Block2,b1_f0_9_59_f2_30_34_dur_0_249_num_24.wav,,,,
v4_BCL_f0,1,1,<?xml version="1.0"?>\n<Clock xmlns:dt="urn:schemas-microsoft-com:datatypes"><Description dt:dt="string">E-Prime Primary Realtime Clock</Description><StartTime><Timestamp dt:dt="int">0</Timestamp><DateUtc dt:dt="string">2014-09-15T18:40:51Z</DateUtc></StartTime><FrequencyChanges><FrequencyChange><Frequency dt:dt="r8">2327520000</Frequency><Timestamp dt:dt="r8">1593067813995</Timestamp><Current dt:dt="r8">0</Current><DateUtc dt:dt="string">2014-09-15T18:40:51Z</DateUtc></FrequencyChange></FrequencyChanges></Clock>\n,v4_BCL_f0-1-1,60.001,1.0.0.210,1,102995802,2.0.10.242,2.0.10.242,09-15-2014,9/15/2014 6:40:52 PM,14:40:52,2.0.10.147,117,,,,,,63,1,63,,,,2,,,b,,0.244,,,9.09,,,29.08,,,,,,TrialProc1,,,,vowel 1,vowel 2,1,152,202394,Block2,b2_f0_9_09_f2_29_08_dur_0_244_num_344.wav,,,,
v4_BCL_f0,1,1,<?xml version="1.0"?>\n<Clock xmlns:dt="urn:schemas-microsoft-com:datatypes"><Description dt:dt="string">E-Prime Primary Realtime Clock</Description><StartTime><Timestamp dt:dt="int">0</Timestamp><DateUtc dt:dt="string">2014-09-15T18:40:51Z</DateUtc></StartTime><FrequencyChanges><FrequencyChange><Frequency dt:dt="r8">2327520000</Frequency><Timestamp dt:dt="r8">1593067813995</Timestamp><Current dt:dt="r8">0</Current><DateUtc dt:dt="string">2014-09-15T18:40:51Z</DateUtc></FrequencyChange></FrequencyChanges></Clock>\n,v4_BCL_f0-1-1,60.001,1.0.0.210,1,102995802,2.0.10.242,2.0.10.242,09-15-2014,9/15/2014 6:40:52 PM,14:40:52,2.0.10.147,118,,,,,,64,1,64,,,,2,,,b,,0.25,,,8.91,,,29.85,,,,,,TrialProc1,,,,vowel 1,vowel 2,1,140,203349,Block2,b2_f0_8_91_f2_29_85_dur_0_250_num_332.wav,,,,
v4_BCL_f0,1,1,<?xml version="1.0"?>\n<Clock xmlns:dt="urn:schemas-microsoft-com:datatypes"><Description dt:dt="string">E-Prime Primary Realtime Clock</Description><StartTime><Timestamp dt:dt="int">0</Timestamp><DateUtc dt:dt="string">2014-09-15T18:40:51Z</DateUtc></StartTime><FrequencyChanges><FrequencyChange><Frequency dt:dt="r8">2327520000</Frequency><Timestamp dt:dt="r8">1593067813995</Timestamp><Current dt:dt="r8">0</Current><DateUtc dt:dt="string">2014-09-15T18:40:51Z</DateUtc></FrequencyChange></FrequencyChanges></Clock>\n,v4_BCL_f0-1-1,60.001,1.0.0.210,1,102995802,2.0.10.242,2.0.10.242,09-15-2014,9/15/2014 6:40:52 PM,14:40:52,2.0.10.147,119,,,,,,65,1,65,,,,1,,,b,,0.253,,,9,,,31.19,,,,,,TrialProc1,,,,vowel 1,vowel 2,1,119,204278,Block2,b1_f0_9_00_f2_31_19_dur_0_253_num_55.wav,,,,
v4_BCL_f0,1,1,<?xml version="1.0"?>\n<Clock xmlns:dt="urn:schemas-microsoft-com:datatypes"><Description dt:dt="string">E-Prime Primary Realtime Clock</Description><StartTime><Timestamp dt:dt="int">0</Timestamp><DateUtc dt:dt="string">2014-09-15T18:40:51Z</DateUtc></StartTime><FrequencyChanges><FrequencyChange><Frequency dt:dt="r8">2327520000</Frequency><Timestamp dt:dt="r8">1593067813995</Timestamp><Current dt:dt="r8">0</Current><DateUtc dt:dt="string">2014-09-15T18:40:51Z</DateUtc></FrequencyChange></FrequencyChanges></Clock>\n,v4_BCL_f0-1-1,60.001,1.0.0.210,1,102995802,2.0.10.242,2.0.10.242,09-15-2014,9/15/2014 6:40:52 PM,14:40:52,2.0.10.147,120,,,,,,66,1,66,,,,1,,,b,,0.252,,,10.2,,,30.43,,,,,,TrialProc1,,,,vowel 1,vowel 2,2,102,205194,Block2,b1_f0_10_20_f2_30_43_dur_0_252_num_58.wav,,,,
v4_BCL_f0,1,1,<?xml version="1.0"?>\n<Clock xmlns:dt="urn:schemas-microsoft-com:datatypes"><Description dt:dt="string">E-Prime Primary Realtime Clock</Description><StartTime><Timestamp dt:dt="int">0</Timestamp><DateUtc dt:dt="string">2014-09-15T18:40:51Z</DateUtc></StartTime><FrequencyChanges><FrequencyChange><Frequency dt:dt="r8">2327520000</Frequency><Timestamp dt:dt="r8">1593067813995</Timestamp><Current dt:dt="r8">0</Current><DateUtc dt:dt="string">2014-09-15T18:40:51Z</DateUtc></FrequencyChange></FrequencyChanges></Clock>\n,v4_BCL_f0-1-1,60.001,1.0.0.210,1,102995802,2.0.10.242,2.0.10.242,09-15-2014,9/15/2014 6:40:52 PM,14:40:52,2.0.10.147,121,,,,,,67,1,67,,,,1,,,b,,0.25,,,9.67,,,30.22,,,,,,TrialProc1,,,,vowel 1,vowel 2,1,114,206123,Block2,b1_f0_9_67_f2_30_22_dur_0_250_num_83.wav,,,,
v4_BCL_f0,1,1,<?xml version="1.0"?>\n<Clock xmlns:dt="urn:schemas-microsoft-com:datatypes"><Description dt:dt="string">E-Prime Primary Realtime Clock</Description><StartTime><Timestamp dt:dt="int">0</Timestamp><DateUtc dt:dt="string">2014-09-15T18:40:51Z</DateUtc></StartTime><FrequencyChanges><FrequencyChange><Frequency dt:dt="r8">2327520000</Frequency><Timestamp dt:dt="r8">1593067813995</Timestamp><Current dt:dt="r8">0</Current><DateUtc dt:dt="string">2014-09-15T18:40:51Z</DateUtc></FrequencyChange></FrequencyChanges></Clock>\n,v4_BCL_f0-1-1,60.001,1.0.0.210,1,102995802,2.0.10.242,2.0.10.242,09-15-2014,9/15/2014 6:40:52 PM,14:40:52,2.0.10.147,122,,,,,,68,1,68,,,,2,,,b,,0.253,,,8.21,,,30.38,,,,,,TrialProc1,,,,vowel 1,vowel 2,1,71,206996,Block2,b2_f0_8_21_f2_30_38_dur_0_253_num_362.wav,,,,
v4_BCL_f0,1,1,<?xml version="1.0"?>\n<Clock xmlns:dt="urn:schemas-microsoft-com:datatypes"><Description dt:dt="string">E-Prime Primary Realtime Clock</Description><StartTime><Timestamp dt:dt="int">0</Timestamp><DateUtc dt:dt="string">2014-09-15T18:40:51Z</DateUtc></StartTime><FrequencyChanges><FrequencyChange><Frequency dt:dt="r8">2327520000</Frequency><Timestamp dt:dt="r8">1593067813995</Timestamp><Current dt:dt="r8">0</Current><DateUtc dt:dt="string">2014-09-15T18:40:51Z</DateUtc></FrequencyChange></FrequencyChanges></Clock>\n,v4_BCL_f0-1-1,60.001,1.0.0.210,1,102995802,2.0.10.242,2.0.10.242,09-15-2014,9/15/2014 6:40:52 PM,14:40:52,2.0.10.147,123,,,,,,69,1,69,,,,1,,,b,,0.249,,,9.53,,,30.33,,,,,,TrialProc1,,,,vowel 1,vowel 2,2,151,207960,Block2,b1_f0_9_53_f2_30_33_dur_0_249_num_87.wav,,,,
v4_BCL_f0,1,1,<?xml version="1.0"?>\n<Clock xmlns:dt="urn:schemas-microsoft-com:datatypes"><Description dt:dt="string">E-Prime Primary Realtime Clock</Description><StartTime><Timestamp dt:dt="int">0</Timestamp><DateUtc dt:dt="string">2014-09-15T18:40:51Z</DateUtc></StartTime><FrequencyChanges><FrequencyChange><Frequency dt:dt="r8">2327520000</Frequency><Timestamp dt:dt="r8">1593067813995</Timestamp><Current dt:dt="r8">0</Current><DateUtc dt:dt="string">2014-09-15T18:40:51Z</DateUtc></FrequencyChange></FrequencyChanges></Clock>\n,v4_BCL_f0-1-1,60.001,1.0.0.210,1,102995802,2.0.10.242,2.0.10.242,09-15-2014,9/15/2014 6:40:52 PM,14:40:52,2.0.10.147,124,,,,,,70,1,70,,,,1,,,b,,0.245,,,10.1,,,30.29,,,,,,TrialProc1,,,,vowel 1,vowel 2,1,130,208905,Block2,b1_f0_10_10_f2_30_29_dur_0_245_num_23.wav,,,,
v4_BCL_f0,1,1,<?xml version="1.0"?>\n<Clock xmlns:dt="urn:schemas-microsoft-com:datatypes"><Description dt:dt="string">E-Prime Primary Realtime Clock</Description><StartTime><Timestamp dt:dt="int">0</Timestamp><DateUtc dt:dt="string">2014-09-15T18:40:51Z</DateUtc></StartTime><FrequencyChanges><FrequencyChange><Frequency dt:dt="r8">2327520000</Frequency><Timestamp dt:dt="r8">1593067813995</Timestamp><Current dt:dt="r8">0</Current><DateUtc dt:dt="string">2014-09-15T18:40:51Z</DateUtc></FrequencyChange></FrequencyChanges></Clock>\n,v4_BCL_f0-1-1,60.001,1.0.0.210,1,102995802,2.0.10.242,2.0.10.242,09-15-2014,9/15/2014 6:40:52 PM,14:40:52,2.0.10.147,125,,,,,,71,1,71,,,,2,,,b,,0.246,,,9.82,,,29.21,,,,,,TrialProc1,,,,vowel 1,vowel 2,1,132,209857,Block2,b2_f0_9_82_f2_29_21_dur_0_246_num_375.wav,,,,
