ExperimentName,Subject,Session,Clock.Information,DataFile.Basename,Display.RefreshRate,ExperimentVersion,Group,RandomSeed,RuntimeVersion,RuntimeVersionExpected,SessionDate,SessionStartDateTimeUtc,SessionTime,StudioVersion,Block,A,B,Block1,Block1.Cycle,Block1.Sample,Block2,Block2.Cycle,Block2.Sample,Block3,Block3.Cycle,Block3.Sample,cat,catA,catB,cons,correct_resp,dur,durA,durB,f0,f0A,f0B,f2,f2A,f2B,PracticeList,PracticeList.Cycle,PracticeList.Sample,Procedure,resp.CRESP,resp.RESP,resp.RT,resp1,resp2,respond.RESP,respond.RT,respond.RTTime,Running,soundfile,testList,testList.Cycle,testList.Sample,X
v4_BCL_f0_d,2,1,<?xml version="1.0"?>\n<Clock xmlns:dt="urn:schemas-microsoft-com:datatypes"><Description dt:dt="string">E-Prime Primary Realtime Clock</Description><StartTime><Timestamp dt:dt="int">0</Timestamp><DateUtc dt:dt="string">2014-09-15T21:28:40Z</DateUtc></StartTime><FrequencyChanges><FrequencyChange><Frequency dt:dt="r8">2327520000</Frequency><Timestamp dt:dt="r8">25026719220377</Timestamp><Current dt:dt="r8">0</Current><DateUtc dt:dt="string">2014-09-15T21:28:40Z</DateUtc></FrequencyChange></FrequencyChanges></Clock>\n,v4_BCL_f0_d-2-1,60.001,1.0.0.214,1,403664053,2.0.10.242,2.0.10.242,09-15-2014,9/15/2014 9:28:40 PM,17:28:40,2.0.10.147,1,,,,,,,,,,,,NA,,,NA,,NA,,,NA,,,NA,,,1,1,1,PracProc,,,,vowel 1,vowel 2,,0,0,PracticeList,key.wav,,,,
v4_BCL_f0_d,2,1,<?xml version="1.0"?>\n<Clock xmlns:dt="urn:schemas-microsoft-com:datatypes"><Description dt:dt="string">E-Prime Primary Realtime Clock</Description><StartTime><Timestamp dt:dt="int">0</Timestamp><DateUtc dt:dt="string">2014-09-15T21:28:40Z</DateUtc></StartTime><FrequencyChanges><FrequencyChange><Frequency dt:dt="r8">2327520000</Frequency><Timestamp dt:dt="r8">25026719220377</Timestamp><Current dt:dt="r8">0</Current><DateUtc dt:dt="string">2014-09-15T21:28:40Z</DateUtc></FrequencyChange></FrequencyChanges></Clock>\n,v4_BCL_f0_d-2-1,60.001,1.0.0.214,1,403664053,2.0.10.242,2.0.10.242,09-15-2014,9/15/2014 9:28:40 PM,17:28:40,2.0.10.147,2,,,,,,,,,,,,NA,,,NA,,NA,,,NA,,,NA,,,3,1,2,PracProc,,,,vowel 1,vowel 2,1,1316,206027,PracticeList,tea.wav,,,,
v4_BCL_f0_d,2,1,<?xml version="1.0"?>\n<Clock xmlns:dt="urn:schemas-microsoft-com:datatypes"><Description dt:dt="string">E-Prime Primary Realtime Clock</Description><StartTime><Timestamp dt:dt="int">0</Timestamp><DateUtc dt:dt="string">2014-09-15T21:28:40Z</DateUtc></StartTime><FrequencyChanges><FrequencyChange><Frequency dt:dt="r8">2327520000</Frequency><Timestamp dt:dt="r8">25026719220377</Timestamp><Current dt:dt="r8">0</Current><DateUtc dt:dt="string">2014-09-15T21:28:40Z</DateUtc></FrequencyChange></FrequencyChanges></Clock>\n,v4_BCL_f0_d-2-1,60.001,1.0.0.214,1,403664053,2.0.10.242,2.0.10.242,09-15-2014,9/15/2014 9:28:40 PM,17:28:40,2.0.10.147,3,,,,,,,,,,,,NA,,,NA,,NA,,,NA,,,NA,,,5,1,3,PracProc,,,,vowel 1,vowel 2,1,992,207936,PracticeList,see.wav,,,,
v4_BCL_f0_d,2,1,<?xml version="1.0"?>\n<Clock xmlns:dt="urn:schemas-microsoft-com:datatypes"><Description dt:dt="string">E-Prime Primary Realtime Clock</Description><StartTime><Timestamp dt:dt="int">0</Timestamp><DateUtc dt:dt="string">2014-09-15T21:28:40Z</DateUtc></StartTime><FrequencyChanges><FrequencyChange><Frequency dt:dt="r8">2327520000</Frequency><Timestamp dt:dt="r8">25026719220377</Timestamp><Current dt:dt="r8">0</Current><DateUtc dt:dt="string">2014-09-15T21:28:40Z</DateUtc></FrequencyChange></FrequencyChanges></Clock>\n,v4_BCL_f0_d-2-1,60.001,1.0.0.214,1,403664053,2.0.10.242,2.0.10.242,09-15-2014,9/15/2014 9:28:40 PM,17:28:40,2.0.10.147,4,,,,,,,,,,,,NA,,,NA,,NA,,,NA,,,NA,,,4,1,4,PracProc,,,,vowel 1,vowel 2,2,379,209223,PracticeList,tay.wav,,,,
v4_BCL_f0_d,2,1,<?xml version="1.0"?>\n<Clock xmlns:dt="urn:schemas-microsoft-com:datatypes"><Description dt:dt="string">E-Prime Primary Realtime Clock</Description><StartTime><Timestamp dt:dt="int">0</Timestamp><DateUtc dt:dt="string">2014-09-15T21:28:40Z</DateUtc></StartTime><FrequencyChanges><FrequencyChange><Frequency dt:dt="r8">2327520000</Frequency><Timestamp dt:dt="r8">25026719220377</Timestamp><Current dt:dt="r8">0</Current><DateUtc dt:dt="string">2014-09-15T21:28:40Z</DateUtc></FrequencyChange></FrequencyChanges></Clock>\n,v4_BCL_f0_d-2-1,60.001,1.0.0.214,1,403664053,2.0.10.242,2.0.10.242,09-15-2014,9/15/2014 9:28:40 PM,17:28:40,2.0.10.147,5,,,,,,,,,,,,NA,,,NA,,NA,,,NA,,,NA,,,2,1,5,PracProc,,,,vowel 1,vowel 2,2,369,210497,PracticeList,kay.wav,,,,
v4_BCL_f0_d,2,1,<?xml version="1.0"?>\n<Clock xmlns:dt="urn:schemas-microsoft-com:datatypes"><Description dt:dt="string">E-Prime Primary Realtime Clock</Description><StartTime><Timestamp dt:dt="int">0</Timestamp><DateUtc dt:dt="string">2014-09-15T21:28:40Z</DateUtc></StartTime><FrequencyChanges><FrequencyChange><Frequency dt:dt="r8">2327520000</Frequency><Timestamp dt:dt="r8">25026719220377</Timestamp><Current dt:dt="r8">0</Current><DateUtc dt:dt="string">2014-09-15T21:28:40Z</DateUtc></FrequencyChange></FrequencyChanges></Clock>\n,v4_BCL_f0_d-2-1,60.001,1.0.0.214,1,403664053,2.0.10.242,2.0.10.242,09-15-2014,9/15/2014 9:28:40 PM,17:28:40,2.0.10.147,6,,,,,,,,,,,,NA,,,NA,,NA,,,NA,,,NA,,,6,1,6,PracProc,,,,vowel 1,vowel 2,2,355,211766,PracticeList,say.wav,,,,
v4_BCL_f0_d,2,1,<?xml version="1.0"?>\n<Clock xmlns:dt="urn:schemas-microsoft-com:datatypes"><Description dt:dt="string">E-Prime Primary Realtime Clock</Description><StartTime><Timestamp dt:dt="int">0</Timestamp><DateUtc dt:dt="string">2014-09-15T21:28:40Z</DateUtc></StartTime><FrequencyChanges><FrequencyChange><Frequency dt:dt="r8">2327520000</Frequency><Timestamp dt:dt="r8">25026719220377</Timestamp><Current dt:dt="r8">0</Current><DateUtc dt:dt="string">2014-09-15T21:28:40Z</DateUtc></FrequencyChange></FrequencyChanges></Clock>\n,v4_BCL_f0_d-2-1,60.001,1.0.0.214,1,403664053,2.0.10.242,2.0.10.242,09-15-2014,9/15/2014 9:28:40 PM,17:28:40,2.0.10.147,7,,,,,,,,,,,,NA,,,NA,,NA,,,NA,,,NA,,,2,2,7,PracProc,,,,vowel 1,vowel 2,2,256,212934,PracticeList,kay.wav,,,,
v4_BCL_f0_d,2,1,<?xml version="1.0"?>\n<Clock xmlns:dt="urn:schemas-microsoft-com:datatypes"><Description dt:dt="string">E-Prime Primary Realtime Clock</Description><StartTime><Timestamp dt:dt="int">0</Timestamp><DateUtc dt:dt="string">2014-09-15T21:28:40Z</DateUtc></StartTime><FrequencyChanges><FrequencyChange><Frequency dt:dt="r8">2327520000</Frequency><Timestamp dt:dt="r8">25026719220377</Timestamp><Current dt:dt="r8">0</Current><DateUtc dt:dt="string">2014-09-15T21:28:40Z</DateUtc></FrequencyChange></FrequencyChanges></Clock>\n,v4_BCL_f0_d-2-1,60.001,1.0.0.214,1,403664053,2.0.10.242,2.0.10.242,09-15-2014,9/15/2014 9:28:40 PM,17:28:40,2.0.10.147,8,,,,,,,,,,,,NA,,,NA,,NA,,,NA,,,NA,,,3,2,8,PracProc,,,,vowel 1,vowel 2,1,201,214045,PracticeList,tea.wav,,,,
v4_BCL_f0_d,2,1,<?xml version="1.0"?>\n<Clock xmlns:dt="urn:schemas-microsoft-com:datatypes"><Description dt:dt="string">E-Prime Primary Realtime Clock</Description><StartTime><Timestamp dt:dt="int">0</Timestamp><DateUtc dt:dt="string">2014-09-15T21:28:40Z</DateUtc></StartTime><FrequencyChanges><FrequencyChange><Frequency dt:dt="r8">2327520000</Frequency><Timestamp dt:dt="r8">25026719220377</Timestamp><Current dt:dt="r8">0</Current><DateUtc dt:dt="string">2014-09-15T21:28:40Z</DateUtc></FrequencyChange></FrequencyChanges></Clock>\n,v4_BCL_f0_d-2-1,60.001,1.0.0.214,1,403664053,2.0.10.242,2.0.10.242,09-15-2014,9/15/2014 9:28:40 PM,17:28:40,2.0.10.147,9,,,,,,,,,,,,NA,,,NA,,NA,,,NA,,,NA,,,5,2,9,PracProc,,,,vowel 1,vowel 2,1,229,215190,PracticeList,see.wav,,,,
v4_BCL_f0_d,2,1,<?xml version="1.0"?>\n<Clock xmlns:dt="urn:schemas-microsoft-com:datatypes"><Description dt:dt="string">E-Prime Primary Realtime Clock</Description><StartTime><Timestamp dt:dt="int">0</Timestamp><DateUtc dt:dt="string">2014-09-15T21:28:40Z</DateUtc></StartTime><FrequencyChanges><FrequencyChange><Frequency dt:dt="r8">2327520000</Frequency><Timestamp dt:dt="r8">25026719220377</Timestamp><Current dt:dt="r8">0</Current><DateUtc dt:dt="string">2014-09-15T21:28:40Z</DateUtc></FrequencyChange></FrequencyChanges></Clock>\n,v4_BCL_f0_d-2-1,60.001,1.0.0.214,1,403664053,2.0.10.242,2.0.10.242,09-15-2014,9/15/2014 9:28:40 PM,17:28:40,2.0.10.147,10,,,,,,,,,,,,NA,,,NA,,NA,,,NA,,,NA,,,4,2,10,PracProc,,,,vowel 1,vowel 2,2,156,216267,PracticeList,tay.wav,,,,
v4_BCL_f0_d,2,1,<?xml version="1.0"?>\n<Clock xmlns:dt="urn:schemas-microsoft-com:datatypes"><Description dt:dt="string">E-Prime Primary Realtime Clock</Description><StartTime><Timestamp dt:dt="int">0</Timestamp><DateUtc dt:dt="string">2014-09-15T21:28:40Z</DateUtc></StartTime><FrequencyChanges><FrequencyChange><Frequency dt:dt="r8">2327520000</Frequency><Timestamp dt:dt="r8">25026719220377</Timestamp><Current dt:dt="r8">0</Current><DateUtc dt:dt="string">2014-09-15T21:28:40Z</DateUtc></FrequencyChange></FrequencyChanges></Clock>\n,v4_BCL_f0_d-2-1,60.001,1.0.0.214,1,403664053,2.0.10.242,2.0.10.242,09-15-2014,9/15/2014 9:28:40 PM,17:28:40,2.0.10.147,11,,,,,,,,,,,,NA,,,NA,,NA,,,NA,,,NA,,,1,2,11,PracProc,,,,vowel 1,vowel 2,1,213,217391,PracticeList,key.wav,,,,
v4_BCL_f0_d,2,1,<?xml version="1.0"?>\n<Clock xmlns:dt="urn:schemas-microsoft-com:datatypes"><Description dt:dt="string">E-Prime Primary Realtime Clock</Description><StartTime><Timestamp dt:dt="int">0</Timestamp><DateUtc dt:dt="string">2014-09-15T21:28:40Z</DateUtc></StartTime><FrequencyChanges><FrequencyChange><Frequency dt:dt="r8">2327520000</Frequency><Timestamp dt:dt="r8">25026719220377</Timestamp><Current dt:dt="r8">0</Current><DateUtc dt:dt="string">2014-09-15T21:28:40Z</DateUtc></FrequencyChange></FrequencyChanges></Clock>\n,v4_BCL_f0_d-2-1,60.001,1.0.0.214,1,403664053,2.0.10.242,2.0.10.242,09-15-2014,9/15/2014 9:28:40 PM,17:28:40,2.0.10.147,12,,,,,,,,,,,,NA,,,NA,,NA,,,NA,,,NA,,,6,2,12,PracProc,,,,vowel 1,vowel 2,2,269,218580,PracticeList,say.wav,,,,
v4_BCL_f0_d,2,1,<?xml version="1.0"?>\n<Clock xmlns:dt="urn:schemas-microsoft-com:datatypes"><Description dt:dt="string">E-Prime Primary Realtime Clock</Description><StartTime><Timestamp dt:dt="int">0</Timestamp><DateUtc dt:dt="string">2014-09-15T21:28:40Z</DateUtc></StartTime><FrequencyChanges><FrequencyChange><Frequency dt:dt="r8">2327520000</Frequency><Timestamp dt:dt="r8">25026719220377</Timestamp><Current dt:dt="r8">0</Current><DateUtc dt:dt="string">2014-09-15T21:28:40Z</DateUtc></FrequencyChange></FrequencyChanges></Clock>\n,v4_BCL_f0_d-2-1,60.001,1.0.0.214,1,403664053,2.0.10.242,2.0.10.242,09-15-2014,9/15/2014 9:28:40 PM,17:28:40,2.0.10.147,13,,,,,,,,,,,,NA,,,NA,,NA,,,NA,,,NA,,,4,3,13,PracProc,,,,vowel 1,vowel 2,2,203,219697,PracticeList,tay.wav,,,,
v4_BCL_f0_d,2,1,<?xml version="1.0"?>\n<Clock xmlns:dt="urn:schemas-microsoft-com:datatypes"><Description dt:dt="string">E-Prime Primary Realtime Clock</Description><StartTime><Timestamp dt:dt="int">0</Timestamp><DateUtc dt:dt="string">2014-09-15T21:28:40Z</DateUtc></StartTime><FrequencyChanges><FrequencyChange><Frequency dt:dt="r8">2327520000</Frequency><Timestamp dt:dt="r8">25026719220377</Timestamp><Current dt:dt="r8">0</Current><DateUtc dt:dt="string">2014-09-15T21:28:40Z</DateUtc></FrequencyChange></FrequencyChanges></Clock>\n,v4_BCL_f0_d-2-1,60.001,1.0.0.214,1,403664053,2.0.10.242,2.0.10.242,09-15-2014,9/15/2014 9:28:40 PM,17:28:40,2.0.10.147,14,,,,,,,,,,,,NA,,,NA,,NA,,,NA,,,NA,,,1,3,14,PracProc,,,,vowel 1,vowel 2,1,70,220681,PracticeList,key.wav,,,,
v4_BCL_f0_d,2,1,<?xml version="1.0"?>\n<Clock xmlns:dt="urn:schemas-microsoft-com:datatypes"><Description dt:dt="string">E-Prime Primary Realtime Clock</Description><StartTime><Timestamp dt:dt="int">0</Timestamp><DateUtc dt:dt="string">2014-09-15T21:28:40Z</DateUtc></StartTime><FrequencyChanges><FrequencyChange><Frequency dt:dt="r8">2327520000</Frequency><Timestamp dt:dt="r8">25026719220377</Timestamp><Current dt:dt="r8">0</Current><DateUtc dt:dt="string">2014-09-15T21:28:40Z</DateUtc></FrequencyChange></FrequencyChanges></Clock>\n,v4_BCL_f0_d-2-1,60.001,1.0.0.214,1,403664053,2.0.10.242,2.0.10.242,09-15-2014,9/15/2014 9:28:40 PM,17:28:40,2.0.10.147,15,,,,,,,,,,,,NA,,,NA,,NA,,,NA,,,NA,,,5,3,15,PracProc,,,,vowel 1,vowel 2,1,138,221732,PracticeList,see.wav,,,,
v4_BCL_f0_d,2,1,<?xml version="1.0"?>\n<Clock xmlns:dt="urn:schemas-microsoft-com:datatypes"><Description dt:dt="string">E-Prime Primary Realtime Clock</Description><StartTime><Timestamp dt:dt="int">0</Timestamp><DateUtc dt:dt="string">2014-09-15T21:28:40Z</DateUtc></StartTime><FrequencyChanges><FrequencyChange><Frequency dt:dt="r8">2327520000</Frequency><Timestamp dt:dt="r8">25026719220377</Timestamp><Current dt:dt="r8">0</Current><DateUtc dt:dt="string">2014-09-15T21:28:40Z</DateUtc></FrequencyChange></FrequencyChanges></Clock>\n,v4_BCL_f0_d-2-1,60.001,1.0.0.214,1,403664053,2.0.10.242,2.0.10.242,09-15-2014,9/15/2014 9:28:40 PM,17:28:40,2.0.10.147,16,,,,,,,,,,,,NA,,,NA,,NA,,,NA,,,NA,,,6,3,16,PracProc,,,,vowel 1,vowel 2,2,219,222863,PracticeList,say.wav,,,,
v4_BCL_f0_d,2,1,<?xml version="1.0"?>\n<Clock xmlns:dt="urn:schemas-microsoft-com:datatypes"><Description dt:dt="string">E-Prime Primary Realtime Clock</Description><StartTime><Timestamp dt:dt="int">0</Timestamp><DateUtc dt:dt="string">2014-09-15T21:28:40Z</DateUtc></StartTime><FrequencyChanges><FrequencyChange><Frequency dt:dt="r8">2327520000</Frequency><Timestamp dt:dt="r8">25026719220377</Timestamp><Current dt:dt="r8">0</Current><DateUtc dt:dt="string">2014-09-15T21:28:40Z</DateUtc></FrequencyChange></FrequencyChanges></Clock>\n,v4_BCL_f0_d-2-1,60.001,1.0.0.214,1,403664053,2.0.10.242,2.0.10.242,09-15-2014,9/15/2014 9:28:40 PM,17:28:40,2.0.10.147,17,,,,,,,,,,,,NA,,,NA,,NA,,,NA,,,NA,,,3,3,17,PracProc,,,,vowel 1,vowel 2,1,30,223807,PracticeList,tea.wav,,,,
v4_BCL_f0_d,2,1,<?xml version="1.0"?>\n<Clock xmlns:dt="urn:schemas-microsoft-com:datatypes"><Description dt:dt="string">E-Prime Primary Realtime Clock</Description><StartTime><Timestamp dt:dt="int">0</Timestamp><DateUtc dt:dt="string">2014-09-15T21:28:40Z</DateUtc></StartTime><FrequencyChanges><FrequencyChange><Frequency dt:dt="r8">2327520000</Frequency><Timestamp dt:dt="r8">25026719220377</Timestamp><Current dt:dt="r8">0</Current><DateUtc dt:dt="string">2014-09-15T21:28:40Z</DateUtc></FrequencyChange></FrequencyChanges></Clock>\n,v4_BCL_f0_d-2-1,60.001,1.0.0.214,1,403664053,2.0.10.242,2.0.10.242,09-15-2014,9/15/2014 9:28:40 PM,17:28:40,2.0.10.147,18,,,,,,,,,,,,NA,,,NA,,NA,,,NA,,,NA,,,2,3,18,PracProc,,,,vowel 1,vowel 2,2,554,225281,PracticeList,kay.wav,,,,
v4_BCL_f0_d,2,1,<?xml version="1.0"?>\n<Clock xmlns:dt="urn:schemas-microsoft-com:datatypes"><Description dt:dt="string">E-Prime Primary Realtime Clock</Description><StartTime><Timestamp dt:dt="int">0</Timestamp><DateUtc dt:dt="string">2014-09-15T21:28:40Z</DateUtc></StartTime><FrequencyChanges><FrequencyChange><Frequency dt:dt="r8">2327520000</Frequency><Timestamp dt:dt="r8">25026719220377</Timestamp><Current dt:dt="r8">0</Current><DateUtc dt:dt="string">2014-09-15T21:28:40Z</DateUtc></FrequencyChange></FrequencyChanges></Clock>\n,v4_BCL_f0_d-2-1,60.001,1.0.0.214,1,403664053,2.0.10.242,2.0.10.242,09-15-2014,9/15/2014 9:28:40 PM,17:28:40,2.0.10.147,19,,,10,1,1,,,,,,,2,,,b,,0.25,,,8.55,,,29.15,,,,,,ExposureProc,,,,vowel 1,vowel 2,,,,Block1,b2_f0_8_55_f2_29_15_dur_0_250_num_310.wav,,,,
v4_BCL_f0_d,2,1,<?xml version="1.0"?>\n<Clock xmlns:dt="urn:schemas-microsoft-com:datatypes"><Description dt:dt="string">E-Prime Primary Realtime Clock</Description><StartTime><Timestamp dt:dt="int">0</Timestamp><DateUtc dt:dt="string">2014-09-15T21:28:40Z</DateUtc></StartTime><FrequencyChanges><FrequencyChange><Frequency dt:dt="r8">2327520000</Frequency><Timestamp dt:dt="r8">25026719220377</Timestamp><Current dt:dt="r8">0</Current><DateUtc dt:dt="string">2014-09-15T21:28:40Z</DateUtc></FrequencyChange></FrequencyChanges></Clock>\n,v4_BCL_f0_d-2-1,60.001,1.0.0.214,1,403664053,2.0.10.242,2.0.10.242,09-15-2014,9/15/2014 9:28:40 PM,17:28:40,2.0.10.147,20,,,26,1,2,,,,,,,1,,,g,,0.248,,,9.5,,,30.89,,,,,,ExposureProc,,,,vowel 1,vowel 2,,,,Block1,g1_f0_9_50_f2_30_89_dur_0_248_num_223.wav,,,,
v4_BCL_f0_d,2,1,<?xml version="1.0"?>\n<Clock xmlns:dt="urn:schemas-microsoft-com:datatypes"><Description dt:dt="string">E-Prime Primary Realtime Clock</Description><StartTime><Timestamp dt:dt="int">0</Timestamp><DateUtc dt:dt="string">2014-09-15T21:28:40Z</DateUtc></StartTime><FrequencyChanges><FrequencyChange><Frequency dt:dt="r8">2327520000</Frequency><Timestamp dt:dt="r8">25026719220377</Timestamp><Current dt:dt="r8">0</Current><DateUtc dt:dt="string">2014-09-15T21:28:40Z</DateUtc></FrequencyChange></FrequencyChanges></Clock>\n,v4_BCL_f0_d-2-1,60.001,1.0.0.214,1,403664053,2.0.10.242,2.0.10.242,09-15-2014,9/15/2014 9:28:40 PM,17:28:40,2.0.10.147,21,,,3,1,3,,,,,,,2,,,b,,0.248,,,7.86,,,30.24,,,,,,ExposureProc,,,,vowel 1,vowel 2,,,,Block1,b2_f0_7_86_f2_30_24_dur_0_248_num_340.wav,,,,
v4_BCL_f0_d,2,1,<?xml version="1.0"?>\n<Clock xmlns:dt="urn:schemas-microsoft-com:datatypes"><Description dt:dt="string">E-Prime Primary Realtime Clock</Description><StartTime><Timestamp dt:dt="int">0</Timestamp><DateUtc dt:dt="string">2014-09-15T21:28:40Z</DateUtc></StartTime><FrequencyChanges><FrequencyChange><Frequency dt:dt="r8">2327520000</Frequency><Timestamp dt:dt="r8">25026719220377</Timestamp><Current dt:dt="r8">0</Current><DateUtc dt:dt="string">2014-09-15T21:28:40Z</DateUtc></FrequencyChange></FrequencyChanges></Clock>\n,v4_BCL_f0_d-2-1,60.001,1.0.0.214,1,403664053,2.0.10.242,2.0.10.242,09-15-2014,9/15/2014 9:28:40 PM,17:28:40,2.0.10.147,22,,,9,1,4,,,,,,,1,,,b,,0.246,,,10.11,,,30.08,,,,,,ExposureProc,,,,vowel 1,vowel 2,,,,Block1,b1_f0_10_11_f2_30_08_dur_0_246_num_47.wav,,,,
v4_BCL_f0_d,2,1,<?xml version="1.0"?>\n<Clock xmlns:dt="urn:schemas-microsoft-com:datatypes"><Description dt:dt="string">E-Prime Primary Realtime Clock</Description><StartTime><Timestamp dt:dt="int">0</Timestamp><DateUtc dt:dt="string">2014-09-15T21:28:40Z</DateUtc></StartTime><FrequencyChanges><FrequencyChange><Frequency dt:dt="r8">2327520000</Frequency><Timestamp dt:dt="r8">25026719220377</Timestamp><Current dt:dt="r8">0</Current><DateUtc dt:dt="string">2014-09-15T21:28:40Z</DateUtc></FrequencyChange></FrequencyChanges></Clock>\n,v4_BCL_f0_d-2-1,60.001,1.0.0.214,1,403664053,2.0.10.242,2.0.10.242,09-15-2014,9/15/2014 9:28:40 PM,17:28:40,2.0.10.147,23,,,21,1,5,,,,,,,1,,,d,,0.248,,,9.04,,,30.69,,,,,,ExposureProc,,,,vowel 1,vowel 2,,,,Block1,d1_f0_9_04_f2_30_69_dur_0_248_num_161.wav,,,,
v4_BCL_f0_d,2,1,<?xml version="1.0"?>\n<Clock xmlns:dt="urn:schemas-microsoft-com:datatypes"><Description dt:dt="string">E-Prime Primary Realtime Clock</Description><StartTime><Timestamp dt:dt="int">0</Timestamp><DateUtc dt:dt="string">2014-09-15T21:28:40Z</DateUtc></StartTime><FrequencyChanges><FrequencyChange><Frequency dt:dt="r8">2327520000</Frequency><Timestamp dt:dt="r8">25026719220377</Timestamp><Current dt:dt="r8">0</Current><DateUtc dt:dt="string">2014-09-15T21:28:40Z</DateUtc></FrequencyChange></FrequencyChanges></Clock>\n,v4_BCL_f0_d-2-1,60.001,1.0.0.214,1,403664053,2.0.10.242,2.0.10.242,09-15-2014,9/15/2014 9:28:40 PM,17:28:40,2.0.10.147,24,,,22,1,6,,,,,,,1,,,d,,0.247,,,10.5,,,29.75,,,,,,ExposureProc,,,,vowel 1,vowel 2,,,,Block1,d1_f0_10_50_f2_29_75_dur_0_247_num_129.wav,,,,
v4_BCL_f0_d,2,1,<?xml version="1.0"?>\n<Clock xmlns:dt="urn:schemas-microsoft-com:datatypes"><Description dt:dt="string">E-Prime Primary Realtime Clock</Description><StartTime><Timestamp dt:dt="int">0</Timestamp><DateUtc dt:dt="string">2014-09-15T21:28:40Z</DateUtc></StartTime><FrequencyChanges><FrequencyChange><Frequency dt:dt="r8">2327520000</Frequency><Timestamp dt:dt="r8">25026719220377</Timestamp><Current dt:dt="r8">0</Current><DateUtc dt:dt="string">2014-09-15T21:28:40Z</DateUtc></FrequencyChange></FrequencyChanges></Clock>\n,v4_BCL_f0_d-2-1,60.001,1.0.0.214,1,403664053,2.0.10.242,2.0.10.242,09-15-2014,9/15/2014 9:28:40 PM,17:28:40,2.0.10.147,25,,,13,1,7,,,,,,,2,,,d,,0.249,,,8.14,,,29.41,,,,,,ExposureProc,,,,vowel 1,vowel 2,,,,Block1,d2_f0_8_14_f2_29_41_dur_0_249_num_419.wav,,,,
v4_BCL_f0_d,2,1,<?xml version="1.0"?>\n<Clock xmlns:dt="urn:schemas-microsoft-com:datatypes"><Description dt:dt="string">E-Prime Primary Realtime Clock</Description><StartTime><Timestamp dt:dt="int">0</Timestamp><DateUtc dt:dt="string">2014-09-15T21:28:40Z</DateUtc></StartTime><FrequencyChanges><FrequencyChange><Frequency dt:dt="r8">2327520000</Frequency><Timestamp dt:dt="r8">25026719220377</Timestamp><Current dt:dt="r8">0</Current><DateUtc dt:dt="string">2014-09-15T21:28:40Z</DateUtc></FrequencyChange></FrequencyChanges></Clock>\n,v4_BCL_f0_d-2-1,60.001,1.0.0.214,1,403664053,2.0.10.242,2.0.10.242,09-15-2014,9/15/2014 9:28:40 PM,17:28:40,2.0.10.147,26,,,14,1,8,,,,,,,2,,,d,,0.248,,,10.11,,,28.03,,,,,,ExposureProc,,,,vowel 1,vowel 2,,,,Block1,d2_f0_10_11_f2_28_03_dur_0_248_num_460.wav,,,,
v4_BCL_f0_d,2,1,<?xml version="1.0"?>\n<Clock xmlns:dt="urn:schemas-microsoft-com:datatypes"><Description dt:dt="string">E-Prime Primary Realtime Clock</Description><StartTime><Timestamp dt:dt="int">0</Timestamp><DateUtc dt:dt="string">2014-09-15T21:28:40Z</DateUtc></StartTime><FrequencyChanges><FrequencyChange><Frequency dt:dt="r8">2327520000</Frequency><Timestamp dt:dt="r8">25026719220377</Timestamp><Current dt:dt="r8">0</Current><DateUtc dt:dt="string">2014-09-15T21:28:40Z</DateUtc></FrequencyChange></FrequencyChanges></Clock>\n,v4_BCL_f0_d-2-1,60.001,1.0.0.214,1,403664053,2.0.10.242,2.0.10.242,09-15-2014,9/15/2014 9:28:40 PM,17:28:40,2.0.10.147,27,,,31,1,9,,,,,,,2,,,g,,0.254,,,9.12,,,29,,,,,,ExposureProc,,,,vowel 1,vowel 2,,,,Block1,g2_f0_9_12_f2_29_00_dur_0_254_num_519.wav,,,,
v4_BCL_f0_d,2,1,<?xml version="1.0"?>\n<Clock xmlns:dt="urn:schemas-microsoft-com:datatypes"><Description dt:dt="string">E-Prime Primary Realtime Clock</Description><StartTime><Timestamp dt:dt="int">0</Timestamp><DateUtc dt:dt="string">2014-09-15T21:28:40Z</DateUtc></StartTime><FrequencyChanges><FrequencyChange><Frequency dt:dt="r8">2327520000</Frequency><Timestamp dt:dt="r8">25026719220377</Timestamp><Current dt:dt="r8">0</Current><DateUtc dt:dt="string">2014-09-15T21:28:40Z</DateUtc></FrequencyChange></FrequencyChanges></Clock>\n,v4_BCL_f0_d-2-1,60.001,1.0.0.214,1,403664053,2.0.10.242,2.0.10.242,09-15-2014,9/15/2014 9:28:40 PM,17:28:40,2.0.10.147,28,,,1,1,10,,,,,,,1,,,b,,0.244,,,10.28,,,30.79,,,,,,ExposureProc,,,,Vowel 1,Vowel 2,,,,Block1,b1_f0_10_28_f2_30_79_dur_0_244_num_6.wav,,,,
v4_BCL_f0_d,2,1,<?xml version="1.0"?>\n<Clock xmlns:dt="urn:schemas-microsoft-com:datatypes"><Description dt:dt="string">E-Prime Primary Realtime Clock</Description><StartTime><Timestamp dt:dt="int">0</Timestamp><DateUtc dt:dt="string">2014-09-15T21:28:40Z</DateUtc></StartTime><FrequencyChanges><FrequencyChange><Frequency dt:dt="r8">2327520000</Frequency><Timestamp dt:dt="r8">25026719220377</Timestamp><Current dt:dt="r8">0</Current><DateUtc dt:dt="string">2014-09-15T21:28:40Z</DateUtc></FrequencyChange></FrequencyChanges></Clock>\n,v4_BCL_f0_d-2-1,60.001,1.0.0.214,1,403664053,2.0.10.242,2.0.10.242,09-15-2014,9/15/2014 9:28:40 PM,17:28:40,2.0.10.147,29,,,6,1,11,,,,,,,2,,,b,,0.249,,,8.88,,,29.03,,,,,,ExposureProc,,,,vowel 1,vowel 2,,,,Block1,b2_f0_8_88_f2_29_03_dur_0_249_num_356.wav,,,,
v4_BCL_f0_d,2,1,<?xml version="1.0"?>\n<Clock xmlns:dt="urn:schemas-microsoft-com:datatypes"><Description dt:dt="string">E-Prime Primary Realtime Clock</Description><StartTime><Timestamp dt:dt="int">0</Timestamp><DateUtc dt:dt="string">2014-09-15T21:28:40Z</DateUtc></StartTime><FrequencyChanges><FrequencyChange><Frequency dt:dt="r8">2327520000</Frequency><Timestamp dt:dt="r8">25026719220377</Timestamp><Current dt:dt="r8">0</Current><DateUtc dt:dt="string">2014-09-15T21:28:40Z</DateUtc></FrequencyChange></FrequencyChanges></Clock>\n,v4_BCL_f0_d-2-1,60.001,1.0.0.214,1,403664053,2.0.10.242,2.0.10.242,09-15-2014,9/15/2014 9:28:40 PM,17:28:40,2.0.10.147,30,,,19,1,12,,,,,,,1,,,d,,0.248,,,9,,,31.15,,,,,,ExposureProc,,,,vowel 1,vowel 2,,,,Block1,d1_f0_9_00_f2_31_15_dur_0_248_num_110.wav,,,,
v4_BCL_f0_d,2,1,<?xml version="1.0"?>\n<Clock xmlns:dt="urn:schemas-microsoft-com:datatypes"><Description dt:dt="string">E-Prime Primary Realtime Clock</Description><StartTime><Timestamp dt:dt="int">0</Timestamp><DateUtc dt:dt="string">2014-09-15T21:28:40Z</DateUtc></StartTime><FrequencyChanges><FrequencyChange><Frequency dt:dt="r8">2327520000</Frequency><Timestamp dt:dt="r8">25026719220377</Timestamp><Current dt:dt="r8">0</Current><DateUtc dt:dt="string">2014-09-15T21:28:40Z</DateUtc></FrequencyChange></FrequencyChanges></Clock>\n,v4_BCL_f0_d-2-1,60.001,1.0.0.214,1,403664053,2.0.10.242,2.0.10.242,09-15-2014,9/15/2014 9:28:40 PM,17:28:40,2.0.10.147,31,,,18,1,13,,,,,,,2,,,d,,0.25,,,9.68,,,28.69,,,,,,ExposureProc,,,,vowel 1,vowel 2,,,,Block1,d2_f0_9_68_f2_28_69_dur_0_250_num_477.wav,,,,
v4_BCL_f0_d,2,1,<?xml version="1.0"?>\n<Clock xmlns:dt="urn:schemas-microsoft-com:datatypes"><Description dt:dt="string">E-Prime Primary Realtime Clock</Description><StartTime><Timestamp dt:dt="int">0</Timestamp><DateUtc dt:dt="string">2014-09-15T21:28:40Z</DateUtc></StartTime><FrequencyChanges><FrequencyChange><Frequency dt:dt="r8">2327520000</Frequency><Timestamp dt:dt="r8">25026719220377</Timestamp><Current dt:dt="r8">0</Current><DateUtc dt:dt="string">2014-09-15T21:28:40Z</DateUtc></FrequencyChange></FrequencyChanges></Clock>\n,v4_BCL_f0_d-2-1,60.001,1.0.0.214,1,403664053,2.0.10.242,2.0.10.242,09-15-2014,9/15/2014 9:28:40 PM,17:28:40,2.0.10.147,32,,,2,1,14,,,,,,,2,,,b,,0.253,,,8.55,,,29.96,,,,,,ExposureProc,,,,vowel 1,vowel 2,,,,Block1,b2_f0_8_55_f2_29_96_dur_0_253_num_313.wav,,,,
v4_BCL_f0_d,2,1,<?xml version="1.0"?>\n<Clock xmlns:dt="urn:schemas-microsoft-com:datatypes"><Description dt:dt="string">E-Prime Primary Realtime Clock</Description><StartTime><Timestamp dt:dt="int">0</Timestamp><DateUtc dt:dt="string">2014-09-15T21:28:40Z</DateUtc></StartTime><FrequencyChanges><FrequencyChange><Frequency dt:dt="r8">2327520000</Frequency><Timestamp dt:dt="r8">25026719220377</Timestamp><Current dt:dt="r8">0</Current><DateUtc dt:dt="string">2014-09-15T21:28:40Z</DateUtc></FrequencyChange></FrequencyChanges></Clock>\n,v4_BCL_f0_d-2-1,60.001,1.0.0.214,1,403664053,2.0.10.242,2.0.10.242,09-15-2014,9/15/2014 9:28:40 PM,17:28:40,2.0.10.147,33,,,33,1,15,,,,,,,2,,,g,,0.248,,,8.49,,,29.93,,,,,,ExposureProc,,,,vowel 1,vowel 2,,,,Block1,g2_f0_8_49_f2_29_93_dur_0_248_num_575.wav,,,,
v4_BCL_f0_d,2,1,<?xml version="1.0"?>\n<Clock xmlns:dt="urn:schemas-microsoft-com:datatypes"><Description dt:dt="string">E-Prime Primary Realtime Clock</Description><StartTime><Timestamp dt:dt="int">0</Timestamp><DateUtc dt:dt="string">2014-09-15T21:28:40Z</DateUtc></StartTime><FrequencyChanges><FrequencyChange><Frequency dt:dt="r8">2327520000</Frequency><Timestamp dt:dt="r8">25026719220377</Timestamp><Current dt:dt="r8">0</Current><DateUtc dt:dt="string">2014-09-15T21:28:40Z</DateUtc></FrequencyChange></FrequencyChanges></Clock>\n,v4_BCL_f0_d-2-1,60.001,1.0.0.214,1,403664053,2.0.10.242,2.0.10.242,09-15-2014,9/15/2014 9:28:40 PM,17:28:40,2.0.10.147,34,,,27,1,16,,,,,,,2,,,g,,0.248,,,9.44,,,29.82,,,,,,ExposureProc,,,,vowel 1,vowel 2,,,,Block1,g2_f0_9_44_f2_29_82_dur_0_248_num_589.wav,,,,
v4_BCL_f0_d,2,1,<?xml version="1.0"?>\n<Clock xmlns:dt="urn:schemas-microsoft-com:datatypes"><Description dt:dt="string">E-Prime Primary Realtime Clock</Description><StartTime><Timestamp dt:dt="int">0</Timestamp><DateUtc dt:dt="string">2014-09-15T21:28:40Z</DateUtc></StartTime><FrequencyChanges><FrequencyChange><Frequency dt:dt="r8">2327520000</Frequency><Timestamp dt:dt="r8">25026719220377</Timestamp><Current dt:dt="r8">0</Current><DateUtc dt:dt="string">2014-09-15T21:28:40Z</DateUtc></FrequencyChange></FrequencyChanges></Clock>\n,v4_BCL_f0_d-2-1,60.001,1.0.0.214,1,403664053,2.0.10.242,2.0.10.242,09-15-2014,9/15/2014 9:28:40 PM,17:28:40,2.0.10.147,35,,,8,1,17,,,,,,,1,,,b,,0.249,,,10.41,,,30.13,,,,,,ExposureProc,,,,vowel 1,vowel 2,,,,Block1,b1_f0_10_41_f2_30_13_dur_0_249_num_93.wav,,,,
v4_BCL_f0_d,2,1,<?xml version="1.0"?>\n<Clock xmlns:dt="urn:schemas-microsoft-com:datatypes"><Description dt:dt="string">E-Prime Primary Realtime Clock</Description><StartTime><Timestamp dt:dt="int">0</Timestamp><DateUtc dt:dt="string">2014-09-15T21:28:40Z</DateUtc></StartTime><FrequencyChanges><FrequencyChange><Frequency dt:dt="r8">2327520000</Frequency><Timestamp dt:dt="r8">25026719220377</Timestamp><Current dt:dt="r8">0</Current><DateUtc dt:dt="string">2014-09-15T21:28:40Z</DateUtc></FrequencyChange></FrequencyChanges></Clock>\n,v4_BCL_f0_d-2-1,60.001,1.0.0.214,1,403664053,2.0.10.242,2.0.10.242,09-15-2014,9/15/2014 9:28:40 PM,17:28:40,2.0.10.147,36,,,16,1,18,,,,,,,2,,,d,,0.255,,,7.95,,,29.94,,,,,,ExposureProc,,,,vowel 1,vowel 2,,,,Block1,d2_f0_7_95_f2_29_94_dur_0_255_num_429.wav,,,,
v4_BCL_f0_d,2,1,<?xml version="1.0"?>\n<Clock xmlns:dt="urn:schemas-microsoft-com:datatypes"><Description dt:dt="string">E-Prime Primary Realtime Clock</Description><StartTime><Timestamp dt:dt="int">0</Timestamp><DateUtc dt:dt="string">2014-09-15T21:28:40Z</DateUtc></StartTime><FrequencyChanges><FrequencyChange><Frequency dt:dt="r8">2327520000</Frequency><Timestamp dt:dt="r8">25026719220377</Timestamp><Current dt:dt="r8">0</Current><DateUtc dt:dt="string">2014-09-15T21:28:40Z</DateUtc></FrequencyChange></FrequencyChanges></Clock>\n,v4_BCL_f0_d-2-1,60.001,1.0.0.214,1,403664053,2.0.10.242,2.0.10.242,09-15-2014,9/15/2014 9:28:40 PM,17:28:40,2.0.10.147,37,,,34,1,19,,,,,,,1,,,g,,0.254,,,10.17,,,30.19,,,,,,ExposureProc,,,,vowel 1,vowel 2,,,,Block1,g1_f0_10_17_f2_30_19_dur_0_254_num_293.wav,,,,
v4_BCL_f0_d,2,1,<?xml version="1.0"?>\n<Clock xmlns:dt="urn:schemas-microsoft-com:datatypes"><Description dt:dt="string">E-Prime Primary Realtime Clock</Description><StartTime><Timestamp dt:dt="int">0</Timestamp><DateUtc dt:dt="string">2014-09-15T21:28:40Z</DateUtc></StartTime><FrequencyChanges><FrequencyChange><Frequency dt:dt="r8">2327520000</Frequency><Timestamp dt:dt="r8">25026719220377</Timestamp><Current dt:dt="r8">0</Current><DateUtc dt:dt="string">2014-09-15T21:28:40Z</DateUtc></FrequencyChange></FrequencyChanges></Clock>\n,v4_BCL_f0_d-2-1,60.001,1.0.0.214,1,403664053,2.0.10.242,2.0.10.242,09-15-2014,9/15/2014 9:28:40 PM,17:28:40,2.0.10.147,38,,,15,1,20,,,,,,,1,,,d,,0.247,,,10.82,,,29.95,,,,,,ExposureProc,,,,vowel 1,vowel 2,,,,Block1,d1_f0_10_82_f2_29_95_dur_0_247_num_181.wav,,,,
v4_BCL_f0_d,2,1,<?xml version="1.0"?>\n<Clock xmlns:dt="urn:schemas-microsoft-com:datatypes"><Description dt:dt="string">E-Prime Primary Realtime Clock</Description><StartTime><Timestamp dt:dt="int">0</Timestamp><DateUtc dt:dt="string">2014-09-15T21:28:40Z</DateUtc></StartTime><FrequencyChanges><FrequencyChange><Frequency dt:dt="r8">2327520000</Frequency><Timestamp dt:dt="r8">25026719220377</Timestamp><Current dt:dt="r8">0</Current><DateUtc dt:dt="string">2014-09-15T21:28:40Z</DateUtc></FrequencyChange></FrequencyChanges></Clock>\n,v4_BCL_f0_d-2-1,60.001,1.0.0.214,1,403664053,2.0.10.242,2.0.10.242,09-15-2014,9/15/2014 9:28:40 PM,17:28:40,2.0.10.147,39,,,23,1,21,,,,,,,1,,,d,,0.253,,,8.34,,,30.79,,,,,,ExposureProc,,,,vowel 1,vowel 2,,,,Block1,d1_f0_8_34_f2_30_79_dur_0_253_num_131.wav,,,,
v4_BCL_f0_d,2,1,<?xml version="1.0"?>\n<Clock xmlns:dt="urn:schemas-microsoft-com:datatypes"><Description dt:dt="string">E-Prime Primary Realtime Clock</Description><StartTime><Timestamp dt:dt="int">0</Timestamp><DateUtc dt:dt="string">2014-09-15T21:28:40Z</DateUtc></StartTime><FrequencyChanges><FrequencyChange><Frequency dt:dt="r8">2327520000</Frequency><Timestamp dt:dt="r8">25026719220377</Timestamp><Current dt:dt="r8">0</Current><DateUtc dt:dt="string">2014-09-15T21:28:40Z</DateUtc></FrequencyChange></FrequencyChanges></Clock>\n,v4_BCL_f0_d-2-1,60.001,1.0.0.214,1,403664053,2.0.10.242,2.0.10.242,09-15-2014,9/15/2014 9:28:40 PM,17:28:40,2.0.10.147,40,,,17,1,22,,,,,,,2,,,d,,0.247,,,8.04,,,29.55,,,,,,ExposureProc,,,,vowel 1,vowel 2,,,,Block1,d2_f0_8_04_f2_29_55_dur_0_247_num_468.wav,,,,
v4_BCL_f0_d,2,1,<?xml version="1.0"?>\n<Clock xmlns:dt="urn:schemas-microsoft-com:datatypes"><Description dt:dt="string">E-Prime Primary Realtime Clock</Description><StartTime><Timestamp dt:dt="int">0</Timestamp><DateUtc dt:dt="string">2014-09-15T21:28:40Z</DateUtc></StartTime><FrequencyChanges><FrequencyChange><Frequency dt:dt="r8">2327520000</Frequency><Timestamp dt:dt="r8">25026719220377</Timestamp><Current dt:dt="r8">0</Current><DateUtc dt:dt="string">2014-09-15T21:28:40Z</DateUtc></FrequencyChange></FrequencyChanges></Clock>\n,v4_BCL_f0_d-2-1,60.001,1.0.0.214,1,403664053,2.0.10.242,2.0.10.242,09-15-2014,9/15/2014 9:28:40 PM,17:28:40,2.0.10.147,41,,,36,1,23,,,,,,,2,,,g,,0.248,,,8.3,,,29.96,,,,,,ExposureProc,,,,vowel 1,vowel 2,,,,Block1,g2_f0_8_30_f2_29_96_dur_0_248_num_533.wav,,,,
v4_BCL_f0_d,2,1,<?xml version="1.0"?>\n<Clock xmlns:dt="urn:schemas-microsoft-com:datatypes"><Description dt:dt="string">E-Prime Primary Realtime Clock</Description><StartTime><Timestamp dt:dt="int">0</Timestamp><DateUtc dt:dt="string">2014-09-15T21:28:40Z</DateUtc></StartTime><FrequencyChanges><FrequencyChange><Frequency dt:dt="r8">2327520000</Frequency><Timestamp dt:dt="r8">25026719220377</Timestamp><Current dt:dt="r8">0</Current><DateUtc dt:dt="string">2014-09-15T21:28:40Z</DateUtc></FrequencyChange></FrequencyChanges></Clock>\n,v4_BCL_f0_d-2-1,60.001,1.0.0.214,1,403664053,2.0.10.242,2.0.10.242,09-15-2014,9/15/2014 9:28:40 PM,17:28:40,2.0.10.147,42,,,12,1,24,,,,,,,2,,,b,,0.252,,,8.69,,,29.39,,,,,,ExposureProc,,,,vowel 1,vowel 2,,,,Block1,b2_f0_8_69_f2_29_39_dur_0_252_num_319.wav,,,,
v4_BCL_f0_d,2,1,<?xml version="1.0"?>\n<Clock xmlns:dt="urn:schemas-microsoft-com:datatypes"><Description dt:dt="string">E-Prime Primary Realtime Clock</Description><StartTime><Timestamp dt:dt="int">0</Timestamp><DateUtc dt:dt="string">2014-09-15T21:28:40Z</DateUtc></StartTime><FrequencyChanges><FrequencyChange><Frequency dt:dt="r8">2327520000</Frequency><Timestamp dt:dt="r8">25026719220377</Timestamp><Current dt:dt="r8">0</Current><DateUtc dt:dt="string">2014-09-15T21:28:40Z</DateUtc></FrequencyChange></FrequencyChanges></Clock>\n,v4_BCL_f0_d-2-1,60.001,1.0.0.214,1,403664053,2.0.10.242,2.0.10.242,09-15-2014,9/15/2014 9:28:40 PM,17:28:40,2.0.10.147,43,,,11,1,25,,,,,,,1,,,b,,0.247,,,9.95,,,29.67,,,,,,ExposureProc,,,,vowel 1,vowel 2,,,,Block1,b1_f0_9_95_f2_29_67_dur_0_247_num_29.wav,,,,
v4_BCL_f0_d,2,1,<?xml version="1.0"?>\n<Clock xmlns:dt="urn:schemas-microsoft-com:datatypes"><Description dt:dt="string">E-Prime Primary Realtime Clock</Description><StartTime><Timestamp dt:dt="int">0</Timestamp><DateUtc dt:dt="string">2014-09-15T21:28:40Z</DateUtc></StartTime><FrequencyChanges><FrequencyChange><Frequency dt:dt="r8">2327520000</Frequency><Timestamp dt:dt="r8">25026719220377</Timestamp><Current dt:dt="r8">0</Current><DateUtc dt:dt="string">2014-09-15T21:28:40Z</DateUtc></FrequencyChange></FrequencyChanges></Clock>\n,v4_BCL_f0_d-2-1,60.001,1.0.0.214,1,403664053,2.0.10.242,2.0.10.242,09-15-2014,9/15/2014 9:28:40 PM,17:28:40,2.0.10.147,44,,,35,1,26,,,,,,,2,,,g,,0.254,,,8.14,,,29.4,,,,,,ExposureProc,,,,vowel 1,vowel 2,,,,Block1,g2_f0_8_14_f2_29_40_dur_0_254_num_593.wav,,,,
v4_BCL_f0_d,2,1,<?xml version="1.0"?>\n<Clock xmlns:dt="urn:schemas-microsoft-com:datatypes"><Description dt:dt="string">E-Prime Primary Realtime Clock</Description><StartTime><Timestamp dt:dt="int">0</Timestamp><DateUtc dt:dt="string">2014-09-15T21:28:40Z</DateUtc></StartTime><FrequencyChanges><FrequencyChange><Frequency dt:dt="r8">2327520000</Frequency><Timestamp dt:dt="r8">25026719220377</Timestamp><Current dt:dt="r8">0</Current><DateUtc dt:dt="string">2014-09-15T21:28:40Z</DateUtc></FrequencyChange></FrequencyChanges></Clock>\n,v4_BCL_f0_d-2-1,60.001,1.0.0.214,1,403664053,2.0.10.242,2.0.10.242,09-15-2014,9/15/2014 9:28:40 PM,17:28:40,2.0.10.147,45,,,5,1,27,,,,,,,2,,,b,,0.252,,,7.55,,,30.38,,,,,,ExposureProc,,,,vowel 1,vowel 2,,,,Block1,b2_f0_7_55_f2_30_38_dur_0_252_num_336.wav,,,,
v4_BCL_f0_d,2,1,<?xml version="1.0"?>\n<Clock xmlns:dt="urn:schemas-microsoft-com:datatypes"><Description dt:dt="string">E-Prime Primary Realtime Clock</Description><StartTime><Timestamp dt:dt="int">0</Timestamp><DateUtc dt:dt="string">2014-09-15T21:28:40Z</DateUtc></StartTime><FrequencyChanges><FrequencyChange><Frequency dt:dt="r8">2327520000</Frequency><Timestamp dt:dt="r8">25026719220377</Timestamp><Current dt:dt="r8">0</Current><DateUtc dt:dt="string">2014-09-15T21:28:40Z</DateUtc></FrequencyChange></FrequencyChanges></Clock>\n,v4_BCL_f0_d-2-1,60.001,1.0.0.214,1,403664053,2.0.10.242,2.0.10.242,09-15-2014,9/15/2014 9:28:40 PM,17:28:40,2.0.10.147,46,,,29,1,28,,,,,,,1,,,g,,0.25,,,9.5,,,29.69,,,,,,ExposureProc,,,,vowel 1,vowel 2,,,,Block1,g1_f0_9_50_f2_29_69_dur_0_250_num_202.wav,,,,
v4_BCL_f0_d,2,1,<?xml version="1.0"?>\n<Clock xmlns:dt="urn:schemas-microsoft-com:datatypes"><Description dt:dt="string">E-Prime Primary Realtime Clock</Description><StartTime><Timestamp dt:dt="int">0</Timestamp><DateUtc dt:dt="string">2014-09-15T21:28:40Z</DateUtc></StartTime><FrequencyChanges><FrequencyChange><Frequency dt:dt="r8">2327520000</Frequency><Timestamp dt:dt="r8">25026719220377</Timestamp><Current dt:dt="r8">0</Current><DateUtc dt:dt="string">2014-09-15T21:28:40Z</DateUtc></FrequencyChange></FrequencyChanges></Clock>\n,v4_BCL_f0_d-2-1,60.001,1.0.0.214,1,403664053,2.0.10.242,2.0.10.242,09-15-2014,9/15/2014 9:28:40 PM,17:28:40,2.0.10.147,47,,,7,1,29,,,,,,,1,,,b,,0.251,,,10.38,,,30.6,,,,,,ExposureProc,,,,vowel 1,vowel 2,,,,Block1,b1_f0_10_38_f2_30_60_dur_0_251_num_4.wav,,,,
v4_BCL_f0_d,2,1,<?xml version="1.0"?>\n<Clock xmlns:dt="urn:schemas-microsoft-com:datatypes"><Description dt:dt="string">E-Prime Primary Realtime Clock</Description><StartTime><Timestamp dt:dt="int">0</Timestamp><DateUtc dt:dt="string">2014-09-15T21:28:40Z</DateUtc></StartTime><FrequencyChanges><FrequencyChange><Frequency dt:dt="r8">2327520000</Frequency><Timestamp dt:dt="r8">25026719220377</Timestamp><Current dt:dt="r8">0</Current><DateUtc dt:dt="string">2014-09-15T21:28:40Z</DateUtc></FrequencyChange></FrequencyChanges></Clock>\n,v4_BCL_f0_d-2-1,60.001,1.0.0.214,1,403664053,2.0.10.242,2.0.10.242,09-15-2014,9/15/2014 9:28:40 PM,17:28:40,2.0.10.147,48,,,25,1,30,,,,,,,1,,,g,,0.251,,,10.64,,,29.26,,,,,,ExposureProc,,,,vowel 1,vowel 2,,,,Block1,g1_f0_10_64_f2_29_26_dur_0_251_num_296.wav,,,,
v4_BCL_f0_d,2,1,<?xml version="1.0"?>\n<Clock xmlns:dt="urn:schemas-microsoft-com:datatypes"><Description dt:dt="string">E-Prime Primary Realtime Clock</Description><StartTime><Timestamp dt:dt="int">0</Timestamp><DateUtc dt:dt="string">2014-09-15T21:28:40Z</DateUtc></StartTime><FrequencyChanges><FrequencyChange><Frequency dt:dt="r8">2327520000</Frequency><Timestamp dt:dt="r8">25026719220377</Timestamp><Current dt:dt="r8">0</Current><DateUtc dt:dt="string">2014-09-15T21:28:40Z</DateUtc></FrequencyChange></FrequencyChanges></Clock>\n,v4_BCL_f0_d-2-1,60.001,1.0.0.214,1,403664053,2.0.10.242,2.0.10.242,09-15-2014,9/15/2014 9:28:40 PM,17:28:40,2.0.10.147,49,,,20,1,31,,,,,,,1,,,d,,0.248,,,9.12,,,30.18,,,,,,ExposureProc,,,,vowel 1,vowel 2,,,,Block1,d1_f0_9_12_f2_30_18_dur_0_248_num_140.wav,,,,
v4_BCL_f0_d,2,1,<?xml version="1.0"?>\n<Clock xmlns:dt="urn:schemas-microsoft-com:datatypes"><Description dt:dt="string">E-Prime Primary Realtime Clock</Description><StartTime><Timestamp dt:dt="int">0</Timestamp><DateUtc dt:dt="string">2014-09-15T21:28:40Z</DateUtc></StartTime><FrequencyChanges><FrequencyChange><Frequency dt:dt="r8">2327520000</Frequency><Timestamp dt:dt="r8">25026719220377</Timestamp><Current dt:dt="r8">0</Current><DateUtc dt:dt="string">2014-09-15T21:28:40Z</DateUtc></FrequencyChange></FrequencyChanges></Clock>\n,v4_BCL_f0_d-2-1,60.001,1.0.0.214,1,403664053,2.0.10.242,2.0.10.242,09-15-2014,9/15/2014 9:28:40 PM,17:28:40,2.0.10.147,50,,,4,1,32,,,,,,,1,,,b,,0.248,,,9.56,,,30.78,,,,,,ExposureProc,,,,vowel 1,vowel 2,,,,Block1,b1_f0_9_56_f2_30_78_dur_0_248_num_7.wav,,,,
v4_BCL_f0_d,2,1,<?xml version="1.0"?>\n<Clock xmlns:dt="urn:schemas-microsoft-com:datatypes"><Description dt:dt="string">E-Prime Primary Realtime Clock</Description><StartTime><Timestamp dt:dt="int">0</Timestamp><DateUtc dt:dt="string">2014-09-15T21:28:40Z</DateUtc></StartTime><FrequencyChanges><FrequencyChange><Frequency dt:dt="r8">2327520000</Frequency><Timestamp dt:dt="r8">25026719220377</Timestamp><Current dt:dt="r8">0</Current><DateUtc dt:dt="string">2014-09-15T21:28:40Z</DateUtc></FrequencyChange></FrequencyChanges></Clock>\n,v4_BCL_f0_d-2-1,60.001,1.0.0.214,1,403664053,2.0.10.242,2.0.10.242,09-15-2014,9/15/2014 9:28:40 PM,17:28:40,2.0.10.147,51,,,30,1,33,,,,,,,1,,,g,,0.251,,,9.11,,,31.59,,,,,,ExposureProc,,,,vowel 1,vowel 2,,,,Block1,g1_f0_9_11_f2_31_59_dur_0_251_num_268.wav,,,,
v4_BCL_f0_d,2,1,<?xml version="1.0"?>\n<Clock xmlns:dt="urn:schemas-microsoft-com:datatypes"><Description dt:dt="string">E-Prime Primary Realtime Clock</Description><StartTime><Timestamp dt:dt="int">0</Timestamp><DateUtc dt:dt="string">2014-09-15T21:28:40Z</DateUtc></StartTime><FrequencyChanges><FrequencyChange><Frequency dt:dt="r8">2327520000</Frequency><Timestamp dt:dt="r8">25026719220377</Timestamp><Current dt:dt="r8">0</Current><DateUtc dt:dt="string">2014-09-15T21:28:40Z</DateUtc></FrequencyChange></FrequencyChanges></Clock>\n,v4_BCL_f0_d-2-1,60.001,1.0.0.214,1,403664053,2.0.10.242,2.0.10.242,09-15-2014,9/15/2014 9:28:40 PM,17:28:40,2.0.10.147,52,,,28,1,34,,,,,,,1,,,g,,0.25,,,9.91,,,30.61,,,,,,ExposureProc,,,,vowel 1,vowel 2,,,,Block1,g1_f0_9_91_f2_30_61_dur_0_250_num_275.wav,,,,
v4_BCL_f0_d,2,1,<?xml version="1.0"?>\n<Clock xmlns:dt="urn:schemas-microsoft-com:datatypes"><Description dt:dt="string">E-Prime Primary Realtime Clock</Description><StartTime><Timestamp dt:dt="int">0</Timestamp><DateUtc dt:dt="string">2014-09-15T21:28:40Z</DateUtc></StartTime><FrequencyChanges><FrequencyChange><Frequency dt:dt="r8">2327520000</Frequency><Timestamp dt:dt="r8">25026719220377</Timestamp><Current dt:dt="r8">0</Current><DateUtc dt:dt="string">2014-09-15T21:28:40Z</DateUtc></FrequencyChange></FrequencyChanges></Clock>\n,v4_BCL_f0_d-2-1,60.001,1.0.0.214,1,403664053,2.0.10.242,2.0.10.242,09-15-2014,9/15/2014 9:28:40 PM,17:28:40,2.0.10.147,53,,,32,1,35,,,,,,,2,,,g,,0.248,,,8.4,,,28.96,,,,,,ExposureProc,,,,vowel 1,vowel 2,,,,Block1,g2_f0_8_40_f2_28_96_dur_0_248_num_564.wav,,,,
v4_BCL_f0_d,2,1,<?xml version="1.0"?>\n<Clock xmlns:dt="urn:schemas-microsoft-com:datatypes"><Description dt:dt="string">E-Prime Primary Realtime Clock</Description><StartTime><Timestamp dt:dt="int">0</Timestamp><DateUtc dt:dt="string">2014-09-15T21:28:40Z</DateUtc></StartTime><FrequencyChanges><FrequencyChange><Frequency dt:dt="r8">2327520000</Frequency><Timestamp dt:dt="r8">25026719220377</Timestamp><Current dt:dt="r8">0</Current><DateUtc dt:dt="string">2014-09-15T21:28:40Z</DateUtc></FrequencyChange></FrequencyChanges></Clock>\n,v4_BCL_f0_d-2-1,60.001,1.0.0.214,1,403664053,2.0.10.242,2.0.10.242,09-15-2014,9/15/2014 9:28:40 PM,17:28:40,2.0.10.147,54,,,24,1,36,,,,,,,2,,,d,,0.256,,,7.69,,,30.74,,,,,,ExposureProc,,,,vowel 1,vowel 2,,,,Block1,d2_f0_7_69_f2_30_74_dur_0_256_num_453.wav,,,,
v4_BCL_f0_d,2,1,<?xml version="1.0"?>\n<Clock xmlns:dt="urn:schemas-microsoft-com:datatypes"><Description dt:dt="string">E-Prime Primary Realtime Clock</Description><StartTime><Timestamp dt:dt="int">0</Timestamp><DateUtc dt:dt="string">2014-09-15T21:28:40Z</DateUtc></StartTime><FrequencyChanges><FrequencyChange><Frequency dt:dt="r8">2327520000</Frequency><Timestamp dt:dt="r8">25026719220377</Timestamp><Current dt:dt="r8">0</Current><DateUtc dt:dt="string">2014-09-15T21:28:40Z</DateUtc></FrequencyChange></FrequencyChanges></Clock>\n,v4_BCL_f0_d-2-1,60.001,1.0.0.214,1,403664053,2.0.10.242,2.0.10.242,09-15-2014,9/15/2014 9:28:40 PM,17:28:40,2.0.10.147,55,,,,,,1,1,1,,,,2,,,d,,0.247,,,9.31,,,29,,,,,,TrialProc1,,,,vowel 1,vowel 2,1,936,328412,Block2,d2_f0_9_31_f2_29_00_dur_0_247_num_425.wav,,,,
v4_BCL_f0_d,2,1,<?xml version="1.0"?>\n<Clock xmlns:dt="urn:schemas-microsoft-com:datatypes"><Description dt:dt="string">E-Prime Primary Realtime Clock</Description><StartTime><Timestamp dt:dt="int">0</Timestamp><DateUtc dt:dt="string">2014-09-15T21:28:40Z</DateUtc></StartTime><FrequencyChanges><FrequencyChange><Frequency dt:dt="r8">2327520000</Frequency><Timestamp dt:dt="r8">25026719220377</Timestamp><Current dt:dt="r8">0</Current><DateUtc dt:dt="string">2014-09-15T21:28:40Z</DateUtc></FrequencyChange></FrequencyChanges></Clock>\n,v4_BCL_f0_d-2-1,60.001,1.0.0.214,1,403664053,2.0.10.242,2.0.10.242,09-15-2014,9/15/2014 9:28:40 PM,17:28:40,2.0.10.147,56,,,,,,2,1,2,,,,1,,,d,,0.246,,,10.18,,,29.45,,,,,,TrialProc1,,,,vowel 1,vowel 2,,0,0,Block2,d1_f0_10_18_f2_29_45_dur_0_246_num_186.wav,,,,
v4_BCL_f0_d,2,1,<?xml version="1.0"?>\n<Clock xmlns:dt="urn:schemas-microsoft-com:datatypes"><Description dt:dt="string">E-Prime Primary Realtime Clock</Description><StartTime><Timestamp dt:dt="int">0</Timestamp><DateUtc dt:dt="string">2014-09-15T21:28:40Z</DateUtc></StartTime><FrequencyChanges><FrequencyChange><Frequency dt:dt="r8">2327520000</Frequency><Timestamp dt:dt="r8">25026719220377</Timestamp><Current dt:dt="r8">0</Current><DateUtc dt:dt="string">2014-09-15T21:28:40Z</DateUtc></FrequencyChange></FrequencyChanges></Clock>\n,v4_BCL_f0_d-2-1,60.001,1.0.0.214,1,403664053,2.0.10.242,2.0.10.242,09-15-2014,9/15/2014 9:28:40 PM,17:28:40,2.0.10.147,57,,,,,,3,1,3,,,,1,,,d,,0.253,,,10.61,,,29.96,,,,,,TrialProc1,,,,vowel 1,vowel 2,2,643,332169,Block2,d1_f0_10_61_f2_29_96_dur_0_253_num_164.wav,,,,
v4_BCL_f0_d,2,1,<?xml version="1.0"?>\n<Clock xmlns:dt="urn:schemas-microsoft-com:datatypes"><Description dt:dt="string">E-Prime Primary Realtime Clock</Description><StartTime><Timestamp dt:dt="int">0</Timestamp><DateUtc dt:dt="string">2014-09-15T21:28:40Z</DateUtc></StartTime><FrequencyChanges><FrequencyChange><Frequency dt:dt="r8">2327520000</Frequency><Timestamp dt:dt="r8">25026719220377</Timestamp><Current dt:dt="r8">0</Current><DateUtc dt:dt="string">2014-09-15T21:28:40Z</DateUtc></FrequencyChange></FrequencyChanges></Clock>\n,v4_BCL_f0_d-2-1,60.001,1.0.0.214,1,403664053,2.0.10.242,2.0.10.242,09-15-2014,9/15/2014 9:28:40 PM,17:28:40,2.0.10.147,58,,,,,,4,1,4,,,,2,,,d,,0.248,,,8.06,,,30.54,,,,,,TrialProc1,,,,vowel 1,vowel 2,1,1108,334084,Block2,d2_f0_8_06_f2_30_54_dur_0_248_num_414.wav,,,,
v4_BCL_f0_d,2,1,<?xml version="1.0"?>\n<Clock xmlns:dt="urn:schemas-microsoft-com:datatypes"><Description dt:dt="string">E-Prime Primary Realtime Clock</Description><StartTime><Timestamp dt:dt="int">0</Timestamp><DateUtc dt:dt="string">2014-09-15T21:28:40Z</DateUtc></StartTime><FrequencyChanges><FrequencyChange><Frequency dt:dt="r8">2327520000</Frequency><Timestamp dt:dt="r8">25026719220377</Timestamp><Current dt:dt="r8">0</Current><DateUtc dt:dt="string">2014-09-15T21:28:40Z</DateUtc></FrequencyChange></FrequencyChanges></Clock>\n,v4_BCL_f0_d-2-1,60.001,1.0.0.214,1,403664053,2.0.10.242,2.0.10.242,09-15-2014,9/15/2014 9:28:40 PM,17:28:40,2.0.10.147,59,,,,,,5,1,5,,,,2,,,d,,0.248,,,7.85,,,29.69,,,,,,TrialProc1,,,,vowel 1,vowel 2,1,780,335689,Block2,d2_f0_7_85_f2_29_69_dur_0_248_num_488.wav,,,,
v4_BCL_f0_d,2,1,<?xml version="1.0"?>\n<Clock xmlns:dt="urn:schemas-microsoft-com:datatypes"><Description dt:dt="string">E-Prime Primary Realtime Clock</Description><StartTime><Timestamp dt:dt="int">0</Timestamp><DateUtc dt:dt="string">2014-09-15T21:28:40Z</DateUtc></StartTime><FrequencyChanges><FrequencyChange><Frequency dt:dt="r8">2327520000</Frequency><Timestamp dt:dt="r8">25026719220377</Timestamp><Current dt:dt="r8">0</Current><DateUtc dt:dt="string">2014-09-15T21:28:40Z</DateUtc></FrequencyChange></FrequencyChanges></Clock>\n,v4_BCL_f0_d-2-1,60.001,1.0.0.214,1,403664053,2.0.10.242,2.0.10.242,09-15-2014,9/15/2014 9:28:40 PM,17:28:40,2.0.10.147,60,,,,,,6,1,6,,,,2,,,d,,0.254,,,8.74,,,29.64,,,,,,TrialProc1,,,,vowel 1,vowel 2,1,693,337185,Block2,d2_f0_8_74_f2_29_64_dur_0_254_num_450.wav,,,,
v4_BCL_f0_d,2,1,<?xml version="1.0"?>\n<Clock xmlns:dt="urn:schemas-microsoft-com:datatypes"><Description dt:dt="string">E-Prime Primary Realtime Clock</Description><StartTime><Timestamp dt:dt="int">0</Timestamp><DateUtc dt:dt="string">2014-09-15T21:28:40Z</DateUtc></StartTime><FrequencyChanges><FrequencyChange><Frequency dt:dt="r8">2327520000</Frequency><Timestamp dt:dt="r8">25026719220377</Timestamp><Current dt:dt="r8">0</Current><DateUtc dt:dt="string">2014-09-15T21:28:40Z</DateUtc></FrequencyChange></FrequencyChanges></Clock>\n,v4_BCL_f0_d-2-1,60.001,1.0.0.214,1,403664053,2.0.10.242,2.0.10.242,09-15-2014,9/15/2014 9:28:40 PM,17:28:40,2.0.10.147,61,,,,,,7,1,7,,,,2,,,d,,0.252,,,8.06,,,30.8,,,,,,TrialProc1,,,,vowel 1,vowel 2,1,456,338448,Block2,d2_f0_8_06_f2_30_80_dur_0_252_num_404.wav,,,,
v4_BCL_f0_d,2,1,<?xml version="1.0"?>\n<Clock xmlns:dt="urn:schemas-microsoft-com:datatypes"><Description dt:dt="string">E-Prime Primary Realtime Clock</Description><StartTime><Timestamp dt:dt="int">0</Timestamp><DateUtc dt:dt="string">2014-09-15T21:28:40Z</DateUtc></StartTime><FrequencyChanges><FrequencyChange><Frequency dt:dt="r8">2327520000</Frequency><Timestamp dt:dt="r8">25026719220377</Timestamp><Current dt:dt="r8">0</Current><DateUtc dt:dt="string">2014-09-15T21:28:40Z</DateUtc></FrequencyChange></FrequencyChanges></Clock>\n,v4_BCL_f0_d-2-1,60.001,1.0.0.214,1,403664053,2.0.10.242,2.0.10.242,09-15-2014,9/15/2014 9:28:40 PM,17:28:40,2.0.10.147,62,,,,,,8,1,8,,,,1,,,d,,0.254,,,10.22,,,30.86,,,,,,TrialProc1,,,,vowel 1,vowel 2,1,713,339972,Block2,d1_f0_10_22_f2_30_86_dur_0_254_num_130.wav,,,,
v4_BCL_f0_d,2,1,<?xml version="1.0"?>\n<Clock xmlns:dt="urn:schemas-microsoft-com:datatypes"><Description dt:dt="string">E-Prime Primary Realtime Clock</Description><StartTime><Timestamp dt:dt="int">0</Timestamp><DateUtc dt:dt="string">2014-09-15T21:28:40Z</DateUtc></StartTime><FrequencyChanges><FrequencyChange><Frequency dt:dt="r8">2327520000</Frequency><Timestamp dt:dt="r8">25026719220377</Timestamp><Current dt:dt="r8">0</Current><DateUtc dt:dt="string">2014-09-15T21:28:40Z</DateUtc></FrequencyChange></FrequencyChanges></Clock>\n,v4_BCL_f0_d-2-1,60.001,1.0.0.214,1,403664053,2.0.10.242,2.0.10.242,09-15-2014,9/15/2014 9:28:40 PM,17:28:40,2.0.10.147,63,,,,,,9,1,9,,,,2,,,d,,0.245,,,7.94,,,30.76,,,,,,TrialProc1,,,,vowel 1,vowel 2,1,854,341630,Block2,d2_f0_7_94_f2_30_76_dur_0_245_num_439.wav,,,,
v4_BCL_f0_d,2,1,<?xml version="1.0"?>\n<Clock xmlns:dt="urn:schemas-microsoft-com:datatypes"><Description dt:dt="string">E-Prime Primary Realtime Clock</Description><StartTime><Timestamp dt:dt="int">0</Timestamp><DateUtc dt:dt="string">2014-09-15T21:28:40Z</DateUtc></StartTime><FrequencyChanges><FrequencyChange><Frequency dt:dt="r8">2327520000</Frequency><Timestamp dt:dt="r8">25026719220377</Timestamp><Current dt:dt="r8">0</Current><DateUtc dt:dt="string">2014-09-15T21:28:40Z</DateUtc></FrequencyChange></FrequencyChanges></Clock>\n,v4_BCL_f0_d-2-1,60.001,1.0.0.214,1,403664053,2.0.10.242,2.0.10.242,09-15-2014,9/15/2014 9:28:40 PM,17:28:40,2.0.10.147,64,,,,,,10,1,10,,,,1,,,d,,0.251,,,9.11,,,30.94,,,,,,TrialProc1,,,,vowel 1,vowel 2,1,892,343334,Block2,d1_f0_9_11_f2_30_94_dur_0_251_num_135.wav,,,,
v4_BCL_f0_d,2,1,<?xml version="1.0"?>\n<Clock xmlns:dt="urn:schemas-microsoft-com:datatypes"><Description dt:dt="string">E-Prime Primary Realtime Clock</Description><StartTime><Timestamp dt:dt="int">0</Timestamp><DateUtc dt:dt="string">2014-09-15T21:28:40Z</DateUtc></StartTime><FrequencyChanges><FrequencyChange><Frequency dt:dt="r8">2327520000</Frequency><Timestamp dt:dt="r8">25026719220377</Timestamp><Current dt:dt="r8">0</Current><DateUtc dt:dt="string">2014-09-15T21:28:40Z</DateUtc></FrequencyChange></FrequencyChanges></Clock>\n,v4_BCL_f0_d-2-1,60.001,1.0.0.214,1,403664053,2.0.10.242,2.0.10.242,09-15-2014,9/15/2014 9:28:40 PM,17:28:40,2.0.10.147,65,,,,,,11,1,11,,,,1,,,d,,0.25,,,8.85,,,31.14,,,,,,TrialProc1,,,,vowel 1,vowel 2,1,649,344791,Block2,d1_f0_8_85_f2_31_14_dur_0_250_num_146.wav,,,,
v4_BCL_f0_d,2,1,<?xml version="1.0"?>\n<Clock xmlns:dt="urn:schemas-microsoft-com:datatypes"><Description dt:dt="string">E-Prime Primary Realtime Clock</Description><StartTime><Timestamp dt:dt="int">0</Timestamp><DateUtc dt:dt="string">2014-09-15T21:28:40Z</DateUtc></StartTime><FrequencyChanges><FrequencyChange><Frequency dt:dt="r8">2327520000</Frequency><Timestamp dt:dt="r8">25026719220377</Timestamp><Current dt:dt="r8">0</Current><DateUtc dt:dt="string">2014-09-15T21:28:40Z</DateUtc></FrequencyChange></FrequencyChanges></Clock>\n,v4_BCL_f0_d-2-1,60.001,1.0.0.214,1,403664053,2.0.10.242,2.0.10.242,09-15-2014,9/15/2014 9:28:40 PM,17:28:40,2.0.10.147,66,,,,,,12,1,12,,,,2,,,d,,0.246,,,8.08,,,30.49,,,,,,TrialProc1,,,,vowel 1,vowel 2,1,532,346141,Block2,d2_f0_8_08_f2_30_49_dur_0_246_num_499.wav,,,,
v4_BCL_f0_d,2,1,<?xml version="1.0"?>\n<Clock xmlns:dt="urn:schemas-microsoft-com:datatypes"><Description dt:dt="string">E-Prime Primary Realtime Clock</Description><StartTime><Timestamp dt:dt="int">0</Timestamp><DateUtc dt:dt="string">2014-09-15T21:28:40Z</DateUtc></StartTime><FrequencyChanges><FrequencyChange><Frequency dt:dt="r8">2327520000</Frequency><Timestamp dt:dt="r8">25026719220377</Timestamp><Current dt:dt="r8">0</Current><DateUtc dt:dt="string">2014-09-15T21:28:40Z</DateUtc></FrequencyChange></FrequencyChanges></Clock>\n,v4_BCL_f0_d-2-1,60.001,1.0.0.214,1,403664053,2.0.10.242,2.0.10.242,09-15-2014,9/15/2014 9:28:40 PM,17:28:40,2.0.10.147,67,,,,,,13,1,13,,,,1,,,d,,0.248,,,10.79,,,29.35,,,,,,TrialProc1,,,,vowel 1,vowel 2,2,233,347192,Block2,d1_f0_10_79_f2_29_35_dur_0_248_num_109.wav,,,,
v4_BCL_f0_d,2,1,<?xml version="1.0"?>\n<Clock xmlns:dt="urn:schemas-microsoft-com:datatypes"><Description dt:dt="string">E-Prime Primary Realtime Clock</Description><StartTime><Timestamp dt:dt="int">0</Timestamp><DateUtc dt:dt="string">2014-09-15T21:28:40Z</DateUtc></StartTime><FrequencyChanges><FrequencyChange><Frequency dt:dt="r8">2327520000</Frequency><Timestamp dt:dt="r8">25026719220377</Timestamp><Current dt:dt="r8">0</Current><DateUtc dt:dt="string">2014-09-15T21:28:40Z</DateUtc></FrequencyChange></FrequencyChanges></Clock>\n,v4_BCL_f0_d-2-1,60.001,1.0.0.214,1,403664053,2.0.10.242,2.0.10.242,09-15-2014,9/15/2014 9:28:40 PM,17:28:40,2.0.10.147,68,,,,,,14,1,14,,,,2,,,d,,0.248,,,7.82,,,30.31,,,,,,TrialProc1,,,,vowel 1,vowel 2,1,346,348355,Block2,d2_f0_7_82_f2_30_31_dur_0_248_num_457.wav,,,,
v4_BCL_f0_d,2,1,<?xml version="1.0"?>\n<Clock xmlns:dt="urn:schemas-microsoft-com:datatypes"><Description dt:dt="string">E-Prime Primary Realtime Clock</Description><StartTime><Timestamp dt:dt="int">0</Timestamp><DateUtc dt:dt="string">2014-09-15T21:28:40Z</DateUtc></StartTime><FrequencyChanges><FrequencyChange><Frequency dt:dt="r8">2327520000</Frequency><Timestamp dt:dt="r8">25026719220377</Timestamp><Current dt:dt="r8">0</Current><DateUtc dt:dt="string">2014-09-15T21:28:40Z</DateUtc></FrequencyChange></FrequencyChanges></Clock>\n,v4_BCL_f0_d-2-1,60.001,1.0.0.214,1,403664053,2.0.10.242,2.0.10.242,09-15-2014,9/15/2014 9:28:40 PM,17:28:40,2.0.10.147,69,,,,,,15,1,15,,,,1,,,d,,0.253,,,9.75,,,30.71,,,,,,TrialProc1,,,,vowel 1,vowel 2,1,679,349838,Block2,d1_f0_9_75_f2_30_71_dur_0_253_num_154.wav,,,,
v4_BCL_f0_d,2,1,<?xml version="1.0"?>\n<Clock xmlns:dt="urn:schemas-microsoft-com:datatypes"><Description dt:dt="string">E-Prime Primary Realtime Clock</Description><StartTime><Timestamp dt:dt="int">0</Timestamp><DateUtc dt:dt="string">2014-09-15T21:28:40Z</DateUtc></StartTime><FrequencyChanges><FrequencyChange><Frequency dt:dt="r8">2327520000</Frequency><Timestamp dt:dt="r8">25026719220377</Timestamp><Current dt:dt="r8">0</Current><DateUtc dt:dt="string">2014-09-15T21:28:40Z</DateUtc></FrequencyChange></FrequencyChanges></Clock>\n,v4_BCL_f0_d-2-1,60.001,1.0.0.214,1,403664053,2.0.10.242,2.0.10.242,09-15-2014,9/15/2014 9:28:40 PM,17:28:40,2.0.10.147,70,,,,,,16,1,16,,,,1,,,d,,0.249,,,10.99,,,28.36,,,,,,TrialProc1,,,,vowel 1,vowel 2,2,268,350927,Block2,d1_f0_10_99_f2_28_36_dur_0_249_num_191.wav,,,,
v4_BCL_f0_d,2,1,<?xml version="1.0"?>\n<Clock xmlns:dt="urn:schemas-microsoft-com:datatypes"><Description dt:dt="string">E-Prime Primary Realtime Clock</Description><StartTime><Timestamp dt:dt="int">0</Timestamp><DateUtc dt:dt="string">2014-09-15T21:28:40Z</DateUtc></StartTime><FrequencyChanges><FrequencyChange><Frequency dt:dt="r8">2327520000</Frequency><Timestamp dt:dt="r8">25026719220377</Timestamp><Current dt:dt="r8">0</Current><DateUtc dt:dt="string">2014-09-15T21:28:40Z</DateUtc></FrequencyChange></FrequencyChanges></Clock>\n,v4_BCL_f0_d-2-1,60.001,1.0.0.214,1,403664053,2.0.10.242,2.0.10.242,09-15-2014,9/15/2014 9:28:40 PM,17:28:40,2.0.10.147,71,,,,,,17,1,17,,,,1,,,d,,0.251,,,10.15,,,30.49,,,,,,TrialProc1,,,,vowel 1,vowel 2,1,907,352649,Block2,d1_f0_10_15_f2_30_49_dur_0_251_num_122.wav,,,,
v4_BCL_f0_d,2,1,<?xml version="1.0"?>\n<Clock xmlns:dt="urn:schemas-microsoft-com:datatypes"><Description dt:dt="string">E-Prime Primary Realtime Clock</Description><StartTime><Timestamp dt:dt="int">0</Timestamp><DateUtc dt:dt="string">2014-09-15T21:28:40Z</DateUtc></StartTime><FrequencyChanges><FrequencyChange><Frequency dt:dt="r8">2327520000</Frequency><Timestamp dt:dt="r8">25026719220377</Timestamp><Current dt:dt="r8">0</Current><DateUtc dt:dt="string">2014-09-15T21:28:40Z</DateUtc></FrequencyChange></FrequencyChanges></Clock>\n,v4_BCL_f0_d-2-1,60.001,1.0.0.214,1,403664053,2.0.10.242,2.0.10.242,09-15-2014,9/15/2014 9:28:40 PM,17:28:40,2.0.10.147,72,,,,,,18,1,18,,,,2,,,d,,0.253,,,7.73,,,29.65,,,,,,TrialProc1,,,,vowel 1,vowel 2,1,239,353698,Block2,d2_f0_7_73_f2_29_65_dur_0_253_num_431.wav,,,,
v4_BCL_f0_d,2,1,<?xml version="1.0"?>\n<Clock xmlns:dt="urn:schemas-microsoft-com:datatypes"><Description dt:dt="string">E-Prime Primary Realtime Clock</Description><StartTime><Timestamp dt:dt="int">0</Timestamp><DateUtc dt:dt="string">2014-09-15T21:28:40Z</DateUtc></StartTime><FrequencyChanges><FrequencyChange><Frequency dt:dt="r8">2327520000</Frequency><Timestamp dt:dt="r8">25026719220377</Timestamp><Current dt:dt="r8">0</Current><DateUtc dt:dt="string">2014-09-15T21:28:40Z</DateUtc></FrequencyChange></FrequencyChanges></Clock>\n,v4_BCL_f0_d-2-1,60.001,1.0.0.214,1,403664053,2.0.10.242,2.0.10.242,09-15-2014,9/15/2014 9:28:40 PM,17:28:40,2.0.10.147,73,,,,,,19,1,19,,,,1,,,d,,0.254,,,9.71,,,30.08,,,,,,TrialProc1,,,,vowel 1,vowel 2,1,475,354984,Block2,d1_f0_9_71_f2_30_08_dur_0_254_num_127.wav,,,,
v4_BCL_f0_d,2,1,<?xml version="1.0"?>\n<Clock xmlns:dt="urn:schemas-microsoft-com:datatypes"><Description dt:dt="string">E-Prime Primary Realtime Clock</Description><StartTime><Timestamp dt:dt="int">0</Timestamp><DateUtc dt:dt="string">2014-09-15T21:28:40Z</DateUtc></StartTime><FrequencyChanges><FrequencyChange><Frequency dt:dt="r8">2327520000</Frequency><Timestamp dt:dt="r8">25026719220377</Timestamp><Current dt:dt="r8">0</Current><DateUtc dt:dt="string">2014-09-15T21:28:40Z</DateUtc></FrequencyChange></FrequencyChanges></Clock>\n,v4_BCL_f0_d-2-1,60.001,1.0.0.214,1,403664053,2.0.10.242,2.0.10.242,09-15-2014,9/15/2014 9:28:40 PM,17:28:40,2.0.10.147,74,,,,,,20,1,20,,,,2,,,d,,0.25,,,8.86,,,29.48,,,,,,TrialProc1,,,,vowel 1,vowel 2,1,179,355971,Block2,d2_f0_8_86_f2_29_48_dur_0_250_num_403.wav,,,,
v4_BCL_f0_d,2,1,<?xml version="1.0"?>\n<Clock xmlns:dt="urn:schemas-microsoft-com:datatypes"><Description dt:dt="string">E-Prime Primary Realtime Clock</Description><StartTime><Timestamp dt:dt="int">0</Timestamp><DateUtc dt:dt="string">2014-09-15T21:28:40Z</DateUtc></StartTime><FrequencyChanges><FrequencyChange><Frequency dt:dt="r8">2327520000</Frequency><Timestamp dt:dt="r8">25026719220377</Timestamp><Current dt:dt="r8">0</Current><DateUtc dt:dt="string">2014-09-15T21:28:40Z</DateUtc></FrequencyChange></FrequencyChanges></Clock>\n,v4_BCL_f0_d-2-1,60.001,1.0.0.214,1,403664053,2.0.10.242,2.0.10.242,09-15-2014,9/15/2014 9:28:40 PM,17:28:40,2.0.10.147,75,,,,,,21,1,21,,,,1,,,d,,0.251,,,9.42,,,31.08,,,,,,TrialProc1,,,,vowel 1,vowel 2,1,184,356976,Block2,d1_f0_9_42_f2_31_08_dur_0_251_num_114.wav,,,,
v4_BCL_f0_d,2,1,<?xml version="1.0"?>\n<Clock xmlns:dt="urn:schemas-microsoft-com:datatypes"><Description dt:dt="string">E-Prime Primary Realtime Clock</Description><StartTime><Timestamp dt:dt="int">0</Timestamp><DateUtc dt:dt="string">2014-09-15T21:28:40Z</DateUtc></StartTime><FrequencyChanges><FrequencyChange><Frequency dt:dt="r8">2327520000</Frequency><Timestamp dt:dt="r8">25026719220377</Timestamp><Current dt:dt="r8">0</Current><DateUtc dt:dt="string">2014-09-15T21:28:40Z</DateUtc></FrequencyChange></FrequencyChanges></Clock>\n,v4_BCL_f0_d-2-1,60.001,1.0.0.214,1,403664053,2.0.10.242,2.0.10.242,09-15-2014,9/15/2014 9:28:40 PM,17:28:40,2.0.10.147,76,,,,,,22,1,22,,,,1,,,d,,0.249,,,9.32,,,31.15,,,,,,TrialProc1,,,,vowel 1,vowel 2,1,67,357859,Block2,d1_f0_9_32_f2_31_15_dur_0_249_num_102.wav,,,,
v4_BCL_f0_d,2,1,<?xml version="1.0"?>\n<Clock xmlns:dt="urn:schemas-microsoft-com:datatypes"><Description dt:dt="string">E-Prime Primary Realtime Clock</Description><StartTime><Timestamp dt:dt="int">0</Timestamp><DateUtc dt:dt="string">2014-09-15T21:28:40Z</DateUtc></StartTime><FrequencyChanges><FrequencyChange><Frequency dt:dt="r8">2327520000</Frequency><Timestamp dt:dt="r8">25026719220377</Timestamp><Current dt:dt="r8">0</Current><DateUtc dt:dt="string">2014-09-15T21:28:40Z</DateUtc></FrequencyChange></FrequencyChanges></Clock>\n,v4_BCL_f0_d-2-1,60.001,1.0.0.214,1,403664053,2.0.10.242,2.0.10.242,09-15-2014,9/15/2014 9:28:40 PM,17:28:40,2.0.10.147,77,,,,,,23,1,23,,,,1,,,d,,0.252,,,10.17,,,29.82,,,,,,TrialProc1,,,,vowel 1,vowel 2,2,440,359115,Block2,d1_f0_10_17_f2_29_82_dur_0_252_num_170.wav,,,,
v4_BCL_f0_d,2,1,<?xml version="1.0"?>\n<Clock xmlns:dt="urn:schemas-microsoft-com:datatypes"><Description dt:dt="string">E-Prime Primary Realtime Clock</Description><StartTime><Timestamp dt:dt="int">0</Timestamp><DateUtc dt:dt="string">2014-09-15T21:28:40Z</DateUtc></StartTime><FrequencyChanges><FrequencyChange><Frequency dt:dt="r8">2327520000</Frequency><Timestamp dt:dt="r8">25026719220377</Timestamp><Current dt:dt="r8">0</Current><DateUtc dt:dt="string">2014-09-15T21:28:40Z</DateUtc></FrequencyChange></FrequencyChanges></Clock>\n,v4_BCL_f0_d-2-1,60.001,1.0.0.214,1,403664053,2.0.10.242,2.0.10.242,09-15-2014,9/15/2014 9:28:40 PM,17:28:40,2.0.10.147,78,,,,,,24,1,24,,,,1,,,d,,0.251,,,10.57,,,30.07,,,,,,TrialProc1,,,,vowel 1,vowel 2,2,714,360639,Block2,d1_f0_10_57_f2_30_07_dur_0_251_num_103.wav,,,,
v4_BCL_f0_d,2,1,<?xml version="1.0"?>\n<Clock xmlns:dt="urn:schemas-microsoft-com:datatypes"><Description dt:dt="string">E-Prime Primary Realtime Clock</Description><StartTime><Timestamp dt:dt="int">0</Timestamp><DateUtc dt:dt="string">2014-09-15T21:28:40Z</DateUtc></StartTime><FrequencyChanges><FrequencyChange><Frequency dt:dt="r8">2327520000</Frequency><Timestamp dt:dt="r8">25026719220377</Timestamp><Current dt:dt="r8">0</Current><DateUtc dt:dt="string">2014-09-15T21:28:40Z</DateUtc></FrequencyChange></FrequencyChanges></Clock>\n,v4_BCL_f0_d-2-1,60.001,1.0.0.214,1,403664053,2.0.10.242,2.0.10.242,09-15-2014,9/15/2014 9:28:40 PM,17:28:40,2.0.10.147,79,,,,,,25,1,25,,,,2,,,d,,0.245,,,8.68,,,29.76,,,,,,TrialProc1,,,,vowel 1,vowel 2,1,250,361709,Block2,d2_f0_8_68_f2_29_76_dur_0_245_num_495.wav,,,,
v4_BCL_f0_d,2,1,<?xml version="1.0"?>\n<Clock xmlns:dt="urn:schemas-microsoft-com:datatypes"><Description dt:dt="string">E-Prime Primary Realtime Clock</Description><StartTime><Timestamp dt:dt="int">0</Timestamp><DateUtc dt:dt="string">2014-09-15T21:28:40Z</DateUtc></StartTime><FrequencyChanges><FrequencyChange><Frequency dt:dt="r8">2327520000</Frequency><Timestamp dt:dt="r8">25026719220377</Timestamp><Current dt:dt="r8">0</Current><DateUtc dt:dt="string">2014-09-15T21:28:40Z</DateUtc></FrequencyChange></FrequencyChanges></Clock>\n,v4_BCL_f0_d-2-1,60.001,1.0.0.214,1,403664053,2.0.10.242,2.0.10.242,09-15-2014,9/15/2014 9:28:40 PM,17:28:40,2.0.10.147,80,,,,,,26,1,26,,,,2,,,d,,0.247,,,8.41,,,29.31,,,,,,TrialProc1,,,,vowel 1,vowel 2,1,138,362663,Block2,d2_f0_8_41_f2_29_31_dur_0_247_num_407.wav,,,,
v4_BCL_f0_d,2,1,<?xml version="1.0"?>\n<Clock xmlns:dt="urn:schemas-microsoft-com:datatypes"><Description dt:dt="string">E-Prime Primary Realtime Clock</Description><StartTime><Timestamp dt:dt="int">0</Timestamp><DateUtc dt:dt="string">2014-09-15T21:28:40Z</DateUtc></StartTime><FrequencyChanges><FrequencyChange><Frequency dt:dt="r8">2327520000</Frequency><Timestamp dt:dt="r8">25026719220377</Timestamp><Current dt:dt="r8">0</Current><DateUtc dt:dt="string">2014-09-15T21:28:40Z</DateUtc></FrequencyChange></FrequencyChanges></Clock>\n,v4_BCL_f0_d-2-1,60.001,1.0.0.214,1,403664053,2.0.10.242,2.0.10.242,09-15-2014,9/15/2014 9:28:40 PM,17:28:40,2.0.10.147,81,,,,,,27,1,27,,,,1,,,d,,0.247,,,10.06,,,31.13,,,,,,TrialProc1,,,,vowel 1,vowel 2,2,185,363660,Block2,d1_f0_10_06_f2_31_13_dur_0_247_num_117.wav,,,,
v4_BCL_f0_d,2,1,<?xml version="1.0"?>\n<Clock xmlns:dt="urn:schemas-microsoft-com:datatypes"><Description dt:dt="string">E-Prime Primary Realtime Clock</Description><StartTime><Timestamp dt:dt="int">0</Timestamp><DateUtc dt:dt="string">2014-09-15T21:28:40Z</DateUtc></StartTime><FrequencyChanges><FrequencyChange><Frequency dt:dt="r8">2327520000</Frequency><Timestamp dt:dt="r8">25026719220377</Timestamp><Current dt:dt="r8">0</Current><DateUtc dt:dt="string">2014-09-15T21:28:40Z</DateUtc></FrequencyChange></FrequencyChanges></Clock>\n,v4_BCL_f0_d-2-1,60.001,1.0.0.214,1,403664053,2.0.10.242,2.0.10.242,09-15-2014,9/15/2014 9:28:40 PM,17:28:40,2.0.10.147,82,,,,,,28,1,28,,,,2,,,d,,0.249,,,8.44,,,30.51,,,,,,TrialProc1,,,,vowel 1,vowel 2,1,132,364607,Block2,d2_f0_8_44_f2_30_51_dur_0_249_num_451.wav,,,,
v4_BCL_f0_d,2,1,<?xml version="1.0"?>\n<Clock xmlns:dt="urn:schemas-microsoft-com:datatypes"><Description dt:dt="string">E-Prime Primary Realtime Clock</Description><StartTime><Timestamp dt:dt="int">0</Timestamp><DateUtc dt:dt="string">2014-09-15T21:28:40Z</DateUtc></StartTime><FrequencyChanges><FrequencyChange><Frequency dt:dt="r8">2327520000</Frequency><Timestamp dt:dt="r8">25026719220377</Timestamp><Current dt:dt="r8">0</Current><DateUtc dt:dt="string">2014-09-15T21:28:40Z</DateUtc></FrequencyChange></FrequencyChanges></Clock>\n,v4_BCL_f0_d-2-1,60.001,1.0.0.214,1,403664053,2.0.10.242,2.0.10.242,09-15-2014,9/15/2014 9:28:40 PM,17:28:40,2.0.10.147,83,,,,,,29,1,29,,,,1,,,d,,0.252,,,10.4,,,29.54,,,,,,TrialProc1,,,,vowel 1,vowel 2,2,47,365472,Block2,d1_f0_10_40_f2_29_54_dur_0_252_num_190.wav,,,,
v4_BCL_f0_d,2,1,<?xml version="1.0"?>\n<Clock xmlns:dt="urn:schemas-microsoft-com:datatypes"><Description dt:dt="string">E-Prime Primary Realtime Clock</Description><StartTime><Timestamp dt:dt="int">0</Timestamp><DateUtc dt:dt="string">2014-09-15T21:28:40Z</DateUtc></StartTime><FrequencyChanges><FrequencyChange><Frequency dt:dt="r8">2327520000</Frequency><Timestamp dt:dt="r8">25026719220377</Timestamp><Current dt:dt="r8">0</Current><DateUtc dt:dt="string">2014-09-15T21:28:40Z</DateUtc></FrequencyChange></FrequencyChanges></Clock>\n,v4_BCL_f0_d-2-1,60.001,1.0.0.214,1,403664053,2.0.10.242,2.0.10.242,09-15-2014,9/15/2014 9:28:40 PM,17:28:40,2.0.10.147,84,,,,,,30,1,30,,,,1,,,d,,0.248,,,9.27,,,30.94,,,,,,TrialProc1,,,,vowel 1,vowel 2,1,438,366713,Block2,d1_f0_9_27_f2_30_94_dur_0_248_num_172.wav,,,,
v4_BCL_f0_d,2,1,<?xml version="1.0"?>\n<Clock xmlns:dt="urn:schemas-microsoft-com:datatypes"><Description dt:dt="string">E-Prime Primary Realtime Clock</Description><StartTime><Timestamp dt:dt="int">0</Timestamp><DateUtc dt:dt="string">2014-09-15T21:28:40Z</DateUtc></StartTime><FrequencyChanges><FrequencyChange><Frequency dt:dt="r8">2327520000</Frequency><Timestamp dt:dt="r8">25026719220377</Timestamp><Current dt:dt="r8">0</Current><DateUtc dt:dt="string">2014-09-15T21:28:40Z</DateUtc></FrequencyChange></FrequencyChanges></Clock>\n,v4_BCL_f0_d-2-1,60.001,1.0.0.214,1,403664053,2.0.10.242,2.0.10.242,09-15-2014,9/15/2014 9:28:40 PM,17:28:40,2.0.10.147,85,,,,,,31,1,31,,,,2,,,d,,0.251,,,9.04,,,29.52,,,,,,TrialProc1,,,,vowel 1,vowel 2,1,325,367850,Block2,d2_f0_9_04_f2_29_52_dur_0_251_num_455.wav,,,,
v4_BCL_f0_d,2,1,<?xml version="1.0"?>\n<Clock xmlns:dt="urn:schemas-microsoft-com:datatypes"><Description dt:dt="string">E-Prime Primary Realtime Clock</Description><StartTime><Timestamp dt:dt="int">0</Timestamp><DateUtc dt:dt="string">2014-09-15T21:28:40Z</DateUtc></StartTime><FrequencyChanges><FrequencyChange><Frequency dt:dt="r8">2327520000</Frequency><Timestamp dt:dt="r8">25026719220377</Timestamp><Current dt:dt="r8">0</Current><DateUtc dt:dt="string">2014-09-15T21:28:40Z</DateUtc></FrequencyChange></FrequencyChanges></Clock>\n,v4_BCL_f0_d-2-1,60.001,1.0.0.214,1,403664053,2.0.10.242,2.0.10.242,09-15-2014,9/15/2014 9:28:40 PM,17:28:40,2.0.10.147,86,,,,,,32,1,32,,,,1,,,d,,0.251,,,9.77,,,30.14,,,,,,TrialProc1,,,,vowel 1,vowel 2,1,206,368865,Block2,d1_f0_9_77_f2_30_14_dur_0_251_num_156.wav,,,,
v4_BCL_f0_d,2,1,<?xml version="1.0"?>\n<Clock xmlns:dt="urn:schemas-microsoft-com:datatypes"><Description dt:dt="string">E-Prime Primary Realtime Clock</Description><StartTime><Timestamp dt:dt="int">0</Timestamp><DateUtc dt:dt="string">2014-09-15T21:28:40Z</DateUtc></StartTime><FrequencyChanges><FrequencyChange><Frequency dt:dt="r8">2327520000</Frequency><Timestamp dt:dt="r8">25026719220377</Timestamp><Current dt:dt="r8">0</Current><DateUtc dt:dt="string">2014-09-15T21:28:40Z</DateUtc></FrequencyChange></FrequencyChanges></Clock>\n,v4_BCL_f0_d-2-1,60.001,1.0.0.214,1,403664053,2.0.10.242,2.0.10.242,09-15-2014,9/15/2014 9:28:40 PM,17:28:40,2.0.10.147,87,,,,,,33,1,33,,,,2,,,d,,0.25,,,8.47,,,29.37,,,,,,TrialProc1,,,,vowel 1,vowel 2,1,82,369757,Block2,d2_f0_8_47_f2_29_37_dur_0_250_num_436.wav,,,,
v4_BCL_f0_d,2,1,<?xml version="1.0"?>\n<Clock xmlns:dt="urn:schemas-microsoft-com:datatypes"><Description dt:dt="string">E-Prime Primary Realtime Clock</Description><StartTime><Timestamp dt:dt="int">0</Timestamp><DateUtc dt:dt="string">2014-09-15T21:28:40Z</DateUtc></StartTime><FrequencyChanges><FrequencyChange><Frequency dt:dt="r8">2327520000</Frequency><Timestamp dt:dt="r8">25026719220377</Timestamp><Current dt:dt="r8">0</Current><DateUtc dt:dt="string">2014-09-15T21:28:40Z</DateUtc></FrequencyChange></FrequencyChanges></Clock>\n,v4_BCL_f0_d-2-1,60.001,1.0.0.214,1,403664053,2.0.10.242,2.0.10.242,09-15-2014,9/15/2014 9:28:40 PM,17:28:40,2.0.10.147,88,,,,,,34,1,34,,,,2,,,d,,0.252,,,9.1,,,28.92,,,,,,TrialProc1,,,,vowel 1,vowel 2,1,72,370631,Block2,d2_f0_9_10_f2_28_92_dur_0_252_num_484.wav,,,,
v4_BCL_f0_d,2,1,<?xml version="1.0"?>\n<Clock xmlns:dt="urn:schemas-microsoft-com:datatypes"><Description dt:dt="string">E-Prime Primary Realtime Clock</Description><StartTime><Timestamp dt:dt="int">0</Timestamp><DateUtc dt:dt="string">2014-09-15T21:28:40Z</DateUtc></StartTime><FrequencyChanges><FrequencyChange><Frequency dt:dt="r8">2327520000</Frequency><Timestamp dt:dt="r8">25026719220377</Timestamp><Current dt:dt="r8">0</Current><DateUtc dt:dt="string">2014-09-15T21:28:40Z</DateUtc></FrequencyChange></FrequencyChanges></Clock>\n,v4_BCL_f0_d-2-1,60.001,1.0.0.214,1,403664053,2.0.10.242,2.0.10.242,09-15-2014,9/15/2014 9:28:40 PM,17:28:40,2.0.10.147,89,,,,,,35,1,35,,,,1,,,d,,0.253,,,10.2,,,30.79,,,,,,TrialProc1,,,,vowel 1,vowel 2,2,300,371742,Block2,d1_f0_10_20_f2_30_79_dur_0_253_num_118.wav,,,,
v4_BCL_f0_d,2,1,<?xml version="1.0"?>\n<Clock xmlns:dt="urn:schemas-microsoft-com:datatypes"><Description dt:dt="string">E-Prime Primary Realtime Clock</Description><StartTime><Timestamp dt:dt="int">0</Timestamp><DateUtc dt:dt="string">2014-09-15T21:28:40Z</DateUtc></StartTime><FrequencyChanges><FrequencyChange><Frequency dt:dt="r8">2327520000</Frequency><Timestamp dt:dt="r8">25026719220377</Timestamp><Current dt:dt="r8">0</Current><DateUtc dt:dt="string">2014-09-15T21:28:40Z</DateUtc></FrequencyChange></FrequencyChanges></Clock>\n,v4_BCL_f0_d-2-1,60.001,1.0.0.214,1,403664053,2.0.10.242,2.0.10.242,09-15-2014,9/15/2014 9:28:40 PM,17:28:40,2.0.10.147,90,,,,,,36,1,36,,,,1,,,d,,0.257,,,10.14,,,30.45,,,,,,TrialProc1,,,,vowel 1,vowel 2,2,194,372753,Block2,d1_f0_10_14_f2_30_45_dur_0_257_num_145.wav,,,,
v4_BCL_f0_d,2,1,<?xml version="1.0"?>\n<Clock xmlns:dt="urn:schemas-microsoft-com:datatypes"><Description dt:dt="string">E-Prime Primary Realtime Clock</Description><StartTime><Timestamp dt:dt="int">0</Timestamp><DateUtc dt:dt="string">2014-09-15T21:28:40Z</DateUtc></StartTime><FrequencyChanges><FrequencyChange><Frequency dt:dt="r8">2327520000</Frequency><Timestamp dt:dt="r8">25026719220377</Timestamp><Current dt:dt="r8">0</Current><DateUtc dt:dt="string">2014-09-15T21:28:40Z</DateUtc></FrequencyChange></FrequencyChanges></Clock>\n,v4_BCL_f0_d-2-1,60.001,1.0.0.214,1,403664053,2.0.10.242,2.0.10.242,09-15-2014,9/15/2014 9:28:40 PM,17:28:40,2.0.10.147,91,,,,,,37,1,37,,,,2,,,d,,0.258,,,7.94,,,29.98,,,,,,TrialProc1,,,,vowel 1,vowel 2,1,140,373699,Block2,d2_f0_7_94_f2_29_98_dur_0_258_num_482.wav,,,,
v4_BCL_f0_d,2,1,<?xml version="1.0"?>\n<Clock xmlns:dt="urn:schemas-microsoft-com:datatypes"><Description dt:dt="string">E-Prime Primary Realtime Clock</Description><StartTime><Timestamp dt:dt="int">0</Timestamp><DateUtc dt:dt="string">2014-09-15T21:28:40Z</DateUtc></StartTime><FrequencyChanges><FrequencyChange><Frequency dt:dt="r8">2327520000</Frequency><Timestamp dt:dt="r8">25026719220377</Timestamp><Current dt:dt="r8">0</Current><DateUtc dt:dt="string">2014-09-15T21:28:40Z</DateUtc></FrequencyChange></FrequencyChanges></Clock>\n,v4_BCL_f0_d-2-1,60.001,1.0.0.214,1,403664053,2.0.10.242,2.0.10.242,09-15-2014,9/15/2014 9:28:40 PM,17:28:40,2.0.10.147,92,,,,,,38,1,38,,,,1,,,d,,0.247,,,10.52,,,30.61,,,,,,TrialProc1,,,,vowel 1,vowel 2,2,741,375266,Block2,d1_f0_10_52_f2_30_61_dur_0_247_num_159.wav,,,,
v4_BCL_f0_d,2,1,<?xml version="1.0"?>\n<Clock xmlns:dt="urn:schemas-microsoft-com:datatypes"><Description dt:dt="string">E-Prime Primary Realtime Clock</Description><StartTime><Timestamp dt:dt="int">0</Timestamp><DateUtc dt:dt="string">2014-09-15T21:28:40Z</DateUtc></StartTime><FrequencyChanges><FrequencyChange><Frequency dt:dt="r8">2327520000</Frequency><Timestamp dt:dt="r8">25026719220377</Timestamp><Current dt:dt="r8">0</Current><DateUtc dt:dt="string">2014-09-15T21:28:40Z</DateUtc></FrequencyChange></FrequencyChanges></Clock>\n,v4_BCL_f0_d-2-1,60.001,1.0.0.214,1,403664053,2.0.10.242,2.0.10.242,09-15-2014,9/15/2014 9:28:40 PM,17:28:40,2.0.10.147,93,,,,,,39,1,39,,,,2,,,d,,0.252,,,8.36,,,30.28,,,,,,TrialProc1,,,,vowel 1,vowel 2,1,102,376177,Block2,d2_f0_8_36_f2_30_28_dur_0_252_num_412.wav,,,,
v4_BCL_f0_d,2,1,<?xml version="1.0"?>\n<Clock xmlns:dt="urn:schemas-microsoft-com:datatypes"><Description dt:dt="string">E-Prime Primary Realtime Clock</Description><StartTime><Timestamp dt:dt="int">0</Timestamp><DateUtc dt:dt="string">2014-09-15T21:28:40Z</DateUtc></StartTime><FrequencyChanges><FrequencyChange><Frequency dt:dt="r8">2327520000</Frequency><Timestamp dt:dt="r8">25026719220377</Timestamp><Current dt:dt="r8">0</Current><DateUtc dt:dt="string">2014-09-15T21:28:40Z</DateUtc></FrequencyChange></FrequencyChanges></Clock>\n,v4_BCL_f0_d-2-1,60.001,1.0.0.214,1,403664053,2.0.10.242,2.0.10.242,09-15-2014,9/15/2014 9:28:40 PM,17:28:40,2.0.10.147,94,,,,,,40,1,40,,,,1,,,d,,0.249,,,11.11,,,29.54,,,,,,TrialProc1,,,,vowel 1,vowel 2,2,129,377121,Block2,d1_f0_11_11_f2_29_54_dur_0_249_num_176.wav,,,,
v4_BCL_f0_d,2,1,<?xml version="1.0"?>\n<Clock xmlns:dt="urn:schemas-microsoft-com:datatypes"><Description dt:dt="string">E-Prime Primary Realtime Clock</Description><StartTime><Timestamp dt:dt="int">0</Timestamp><DateUtc dt:dt="string">2014-09-15T21:28:40Z</DateUtc></StartTime><FrequencyChanges><FrequencyChange><Frequency dt:dt="r8">2327520000</Frequency><Timestamp dt:dt="r8">25026719220377</Timestamp><Current dt:dt="r8">0</Current><DateUtc dt:dt="string">2014-09-15T21:28:40Z</DateUtc></FrequencyChange></FrequencyChanges></Clock>\n,v4_BCL_f0_d-2-1,60.001,1.0.0.214,1,403664053,2.0.10.242,2.0.10.242,09-15-2014,9/15/2014 9:28:40 PM,17:28:40,2.0.10.147,95,,,,,,41,1,41,,,,2,,,d,,0.251,,,8.18,,,29.73,,,,,,TrialProc1,,,,vowel 1,vowel 2,1,82,378024,Block2,d2_f0_8_18_f2_29_73_dur_0_251_num_426.wav,,,,
v4_BCL_f0_d,2,1,<?xml version="1.0"?>\n<Clock xmlns:dt="urn:schemas-microsoft-com:datatypes"><Description dt:dt="string">E-Prime Primary Realtime Clock</Description><StartTime><Timestamp dt:dt="int">0</Timestamp><DateUtc dt:dt="string">2014-09-15T21:28:40Z</DateUtc></StartTime><FrequencyChanges><FrequencyChange><Frequency dt:dt="r8">2327520000</Frequency><Timestamp dt:dt="r8">25026719220377</Timestamp><Current dt:dt="r8">0</Current><DateUtc dt:dt="string">2014-09-15T21:28:40Z</DateUtc></FrequencyChange></FrequencyChanges></Clock>\n,v4_BCL_f0_d-2-1,60.001,1.0.0.214,1,403664053,2.0.10.242,2.0.10.242,09-15-2014,9/15/2014 9:28:40 PM,17:28:40,2.0.10.147,96,,,,,,42,1,42,,,,2,,,d,,0.245,,,8.31,,,29.87,,,,,,TrialProc1,,,,vowel 1,vowel 2,1,320,379162,Block2,d2_f0_8_31_f2_29_87_dur_0_245_num_489.wav,,,,
v4_BCL_f0_d,2,1,<?xml version="1.0"?>\n<Clock xmlns:dt="urn:schemas-microsoft-com:datatypes"><Description dt:dt="string">E-Prime Primary Realtime Clock</Description><StartTime><Timestamp dt:dt="int">0</Timestamp><DateUtc dt:dt="string">2014-09-15T21:28:40Z</DateUtc></StartTime><FrequencyChanges><FrequencyChange><Frequency dt:dt="r8">2327520000</Frequency><Timestamp dt:dt="r8">25026719220377</Timestamp><Current dt:dt="r8">0</Current><DateUtc dt:dt="string">2014-09-15T21:28:40Z</DateUtc></FrequencyChange></FrequencyChanges></Clock>\n,v4_BCL_f0_d-2-1,60.001,1.0.0.214,1,403664053,2.0.10.242,2.0.10.242,09-15-2014,9/15/2014 9:28:40 PM,17:28:40,2.0.10.147,97,,,,,,43,1,43,,,,1,,,d,,0.257,,,9.49,,,30.89,,,,,,TrialProc1,,,,vowel 1,vowel 2,1,736,380711,Block2,d1_f0_9_49_f2_30_89_dur_0_257_num_153.wav,,,,
v4_BCL_f0_d,2,1,<?xml version="1.0"?>\n<Clock xmlns:dt="urn:schemas-microsoft-com:datatypes"><Description dt:dt="string">E-Prime Primary Realtime Clock</Description><StartTime><Timestamp dt:dt="int">0</Timestamp><DateUtc dt:dt="string">2014-09-15T21:28:40Z</DateUtc></StartTime><FrequencyChanges><FrequencyChange><Frequency dt:dt="r8">2327520000</Frequency><Timestamp dt:dt="r8">25026719220377</Timestamp><Current dt:dt="r8">0</Current><DateUtc dt:dt="string">2014-09-15T21:28:40Z</DateUtc></FrequencyChange></FrequencyChanges></Clock>\n,v4_BCL_f0_d-2-1,60.001,1.0.0.214,1,403664053,2.0.10.242,2.0.10.242,09-15-2014,9/15/2014 9:28:40 PM,17:28:40,2.0.10.147,98,,,,,,44,1,44,,,,2,,,d,,0.252,,,9.18,,,28.78,,,,,,TrialProc1,,,,vowel 1,vowel 2,1,206,381731,Block2,d2_f0_9_18_f2_28_78_dur_0_252_num_465.wav,,,,
v4_BCL_f0_d,2,1,<?xml version="1.0"?>\n<Clock xmlns:dt="urn:schemas-microsoft-com:datatypes"><Description dt:dt="string">E-Prime Primary Realtime Clock</Description><StartTime><Timestamp dt:dt="int">0</Timestamp><DateUtc dt:dt="string">2014-09-15T21:28:40Z</DateUtc></StartTime><FrequencyChanges><FrequencyChange><Frequency dt:dt="r8">2327520000</Frequency><Timestamp dt:dt="r8">25026719220377</Timestamp><Current dt:dt="r8">0</Current><DateUtc dt:dt="string">2014-09-15T21:28:40Z</DateUtc></FrequencyChange></FrequencyChanges></Clock>\n,v4_BCL_f0_d-2-1,60.001,1.0.0.214,1,403664053,2.0.10.242,2.0.10.242,09-15-2014,9/15/2014 9:28:40 PM,17:28:40,2.0.10.147,99,,,,,,45,1,45,,,,1,,,d,,0.251,,,10.11,,,29.72,,,,,,TrialProc1,,,,vowel 1,vowel 2,1,285,382827,Block2,d1_f0_10_11_f2_29_72_dur_0_251_num_107.wav,,,,
v4_BCL_f0_d,2,1,<?xml version="1.0"?>\n<Clock xmlns:dt="urn:schemas-microsoft-com:datatypes"><Description dt:dt="string">E-Prime Primary Realtime Clock</Description><StartTime><Timestamp dt:dt="int">0</Timestamp><DateUtc dt:dt="string">2014-09-15T21:28:40Z</DateUtc></StartTime><FrequencyChanges><FrequencyChange><Frequency dt:dt="r8">2327520000</Frequency><Timestamp dt:dt="r8">25026719220377</Timestamp><Current dt:dt="r8">0</Current><DateUtc dt:dt="string">2014-09-15T21:28:40Z</DateUtc></FrequencyChange></FrequencyChanges></Clock>\n,v4_BCL_f0_d-2-1,60.001,1.0.0.214,1,403664053,2.0.10.242,2.0.10.242,09-15-2014,9/15/2014 9:28:40 PM,17:28:40,2.0.10.147,100,,,,,,46,1,46,,,,2,,,d,,0.248,,,6.93,,,30.04,,,,,,TrialProc1,,,,vowel 1,vowel 2,2,872,384514,Block2,d2_f0_6_93_f2_30_04_dur_0_248_num_470.wav,,,,
v4_BCL_f0_d,2,1,<?xml version="1.0"?>\n<Clock xmlns:dt="urn:schemas-microsoft-com:datatypes"><Description dt:dt="string">E-Prime Primary Realtime Clock</Description><StartTime><Timestamp dt:dt="int">0</Timestamp><DateUtc dt:dt="string">2014-09-15T21:28:40Z</DateUtc></StartTime><FrequencyChanges><FrequencyChange><Frequency dt:dt="r8">2327520000</Frequency><Timestamp dt:dt="r8">25026719220377</Timestamp><Current dt:dt="r8">0</Current><DateUtc dt:dt="string">2014-09-15T21:28:40Z</DateUtc></FrequencyChange></FrequencyChanges></Clock>\n,v4_BCL_f0_d-2-1,60.001,1.0.0.214,1,403664053,2.0.10.242,2.0.10.242,09-15-2014,9/15/2014 9:28:40 PM,17:28:40,2.0.10.147,101,,,,,,47,1,47,,,,2,,,d,,0.249,,,6.74,,,30.94,,,,,,TrialProc1,,,,vowel 1,vowel 2,2,581,385906,Block2,d2_f0_6_74_f2_30_94_dur_0_249_num_416.wav,,,,
v4_BCL_f0_d,2,1,<?xml version="1.0"?>\n<Clock xmlns:dt="urn:schemas-microsoft-com:datatypes"><Description dt:dt="string">E-Prime Primary Realtime Clock</Description><StartTime><Timestamp dt:dt="int">0</Timestamp><DateUtc dt:dt="string">2014-09-15T21:28:40Z</DateUtc></StartTime><FrequencyChanges><FrequencyChange><Frequency dt:dt="r8">2327520000</Frequency><Timestamp dt:dt="r8">25026719220377</Timestamp><Current dt:dt="r8">0</Current><DateUtc dt:dt="string">2014-09-15T21:28:40Z</DateUtc></FrequencyChange></FrequencyChanges></Clock>\n,v4_BCL_f0_d-2-1,60.001,1.0.0.214,1,403664053,2.0.10.242,2.0.10.242,09-15-2014,9/15/2014 9:28:40 PM,17:28:40,2.0.10.147,102,,,,,,48,1,48,,,,2,,,d,,0.248,,,8.3,,,29.34,,,,,,TrialProc1,,,,vowel 1,vowel 2,1,489,387214,Block2,d2_f0_8_30_f2_29_34_dur_0_248_num_441.wav,,,,
v4_BCL_f0_d,2,1,<?xml version="1.0"?>\n<Clock xmlns:dt="urn:schemas-microsoft-com:datatypes"><Description dt:dt="string">E-Prime Primary Realtime Clock</Description><StartTime><Timestamp dt:dt="int">0</Timestamp><DateUtc dt:dt="string">2014-09-15T21:28:40Z</DateUtc></StartTime><FrequencyChanges><FrequencyChange><Frequency dt:dt="r8">2327520000</Frequency><Timestamp dt:dt="r8">25026719220377</Timestamp><Current dt:dt="r8">0</Current><DateUtc dt:dt="string">2014-09-15T21:28:40Z</DateUtc></FrequencyChange></FrequencyChanges></Clock>\n,v4_BCL_f0_d-2-1,60.001,1.0.0.214,1,403664053,2.0.10.242,2.0.10.242,09-15-2014,9/15/2014 9:28:40 PM,17:28:40,2.0.10.147,103,,,,,,49,1,49,,,,1,,,d,,0.246,,,9.41,,,30.49,,,,,,TrialProc1,,,,vowel 1,vowel 2,2,1012,389037,Block2,d1_f0_9_41_f2_30_49_dur_0_246_num_143.wav,,,,
v4_BCL_f0_d,2,1,<?xml version="1.0"?>\n<Clock xmlns:dt="urn:schemas-microsoft-com:datatypes"><Description dt:dt="string">E-Prime Primary Realtime Clock</Description><StartTime><Timestamp dt:dt="int">0</Timestamp><DateUtc dt:dt="string">2014-09-15T21:28:40Z</DateUtc></StartTime><FrequencyChanges><FrequencyChange><Frequency dt:dt="r8">2327520000</Frequency><Timestamp dt:dt="r8">25026719220377</Timestamp><Current dt:dt="r8">0</Current><DateUtc dt:dt="string">2014-09-15T21:28:40Z</DateUtc></FrequencyChange></FrequencyChanges></Clock>\n,v4_BCL_f0_d-2-1,60.001,1.0.0.214,1,403664053,2.0.10.242,2.0.10.242,09-15-2014,9/15/2014 9:28:40 PM,17:28:40,2.0.10.147,104,,,,,,50,1,50,,,,1,,,d,,0.25,,,10.52,,,30.18,,,,,,TrialProc1,,,,vowel 1,vowel 2,2,296,390138,Block2,d1_f0_10_52_f2_30_18_dur_0_250_num_158.wav,,,,
v4_BCL_f0_d,2,1,<?xml version="1.0"?>\n<Clock xmlns:dt="urn:schemas-microsoft-com:datatypes"><Description dt:dt="string">E-Prime Primary Realtime Clock</Description><StartTime><Timestamp dt:dt="int">0</Timestamp><DateUtc dt:dt="string">2014-09-15T21:28:40Z</DateUtc></StartTime><FrequencyChanges><FrequencyChange><Frequency dt:dt="r8">2327520000</Frequency><Timestamp dt:dt="r8">25026719220377</Timestamp><Current dt:dt="r8">0</Current><DateUtc dt:dt="string">2014-09-15T21:28:40Z</DateUtc></FrequencyChange></FrequencyChanges></Clock>\n,v4_BCL_f0_d-2-1,60.001,1.0.0.214,1,403664053,2.0.10.242,2.0.10.242,09-15-2014,9/15/2014 9:28:40 PM,17:28:40,2.0.10.147,105,,,,,,51,1,51,,,,1,,,d,,0.249,,,8.96,,,30.76,,,,,,TrialProc1,,,,vowel 1,vowel 2,2,409,391367,Block2,d1_f0_8_96_f2_30_76_dur_0_249_num_106.wav,,,,
v4_BCL_f0_d,2,1,<?xml version="1.0"?>\n<Clock xmlns:dt="urn:schemas-microsoft-com:datatypes"><Description dt:dt="string">E-Prime Primary Realtime Clock</Description><StartTime><Timestamp dt:dt="int">0</Timestamp><DateUtc dt:dt="string">2014-09-15T21:28:40Z</DateUtc></StartTime><FrequencyChanges><FrequencyChange><Frequency dt:dt="r8">2327520000</Frequency><Timestamp dt:dt="r8">25026719220377</Timestamp><Current dt:dt="r8">0</Current><DateUtc dt:dt="string">2014-09-15T21:28:40Z</DateUtc></FrequencyChange></FrequencyChanges></Clock>\n,v4_BCL_f0_d-2-1,60.001,1.0.0.214,1,403664053,2.0.10.242,2.0.10.242,09-15-2014,9/15/2014 9:28:40 PM,17:28:40,2.0.10.147,106,,,,,,52,1,52,,,,2,,,d,,0.25,,,7.87,,,30.74,,,,,,TrialProc1,,,,vowel 1,vowel 2,2,472,392680,Block2,d2_f0_7_87_f2_30_74_dur_0_250_num_452.wav,,,,
v4_BCL_f0_d,2,1,<?xml version="1.0"?>\n<Clock xmlns:dt="urn:schemas-microsoft-com:datatypes"><Description dt:dt="string">E-Prime Primary Realtime Clock</Description><StartTime><Timestamp dt:dt="int">0</Timestamp><DateUtc dt:dt="string">2014-09-15T21:28:40Z</DateUtc></StartTime><FrequencyChanges><FrequencyChange><Frequency dt:dt="r8">2327520000</Frequency><Timestamp dt:dt="r8">25026719220377</Timestamp><Current dt:dt="r8">0</Current><DateUtc dt:dt="string">2014-09-15T21:28:40Z</DateUtc></FrequencyChange></FrequencyChanges></Clock>\n,v4_BCL_f0_d-2-1,60.001,1.0.0.214,1,403664053,2.0.10.242,2.0.10.242,09-15-2014,9/15/2014 9:28:40 PM,17:28:40,2.0.10.147,107,,,,,,53,1,53,,,,1,,,d,,0.243,,,9.87,,,31.31,,,,,,TrialProc1,,,,vowel 1,vowel 2,2,260,393768,Block2,d1_f0_9_87_f2_31_31_dur_0_243_num_133.wav,,,,
v4_BCL_f0_d,2,1,<?xml version="1.0"?>\n<Clock xmlns:dt="urn:schemas-microsoft-com:datatypes"><Description dt:dt="string">E-Prime Primary Realtime Clock</Description><StartTime><Timestamp dt:dt="int">0</Timestamp><DateUtc dt:dt="string">2014-09-15T21:28:40Z</DateUtc></StartTime><FrequencyChanges><FrequencyChange><Frequency dt:dt="r8">2327520000</Frequency><Timestamp dt:dt="r8">25026719220377</Timestamp><Current dt:dt="r8">0</Current><DateUtc dt:dt="string">2014-09-15T21:28:40Z</DateUtc></FrequencyChange></FrequencyChanges></Clock>\n,v4_BCL_f0_d-2-1,60.001,1.0.0.214,1,403664053,2.0.10.242,2.0.10.242,09-15-2014,9/15/2014 9:28:40 PM,17:28:40,2.0.10.147,108,,,,,,54,1,54,,,,1,,,d,,0.239,,,10.96,,,29.47,,,,,,TrialProc1,,,,vowel 1,vowel 2,2,402,394977,Block2,d1_f0_10_96_f2_29_47_dur_0_239_num_171.wav,,,,
v4_BCL_f0_d,2,1,<?xml version="1.0"?>\n<Clock xmlns:dt="urn:schemas-microsoft-com:datatypes"><Description dt:dt="string">E-Prime Primary Realtime Clock</Description><StartTime><Timestamp dt:dt="int">0</Timestamp><DateUtc dt:dt="string">2014-09-15T21:28:40Z</DateUtc></StartTime><FrequencyChanges><FrequencyChange><Frequency dt:dt="r8">2327520000</Frequency><Timestamp dt:dt="r8">25026719220377</Timestamp><Current dt:dt="r8">0</Current><DateUtc dt:dt="string">2014-09-15T21:28:40Z</DateUtc></FrequencyChange></FrequencyChanges></Clock>\n,v4_BCL_f0_d-2-1,60.001,1.0.0.214,1,403664053,2.0.10.242,2.0.10.242,09-15-2014,9/15/2014 9:28:40 PM,17:28:40,2.0.10.147,109,,,,,,55,1,55,,,,2,,,d,,0.251,,,8.08,,,30.53,,,,,,TrialProc1,,,,vowel 1,vowel 2,,0,0,Block2,d2_f0_8_08_f2_30_53_dur_0_251_num_464.wav,,,,
v4_BCL_f0_d,2,1,<?xml version="1.0"?>\n<Clock xmlns:dt="urn:schemas-microsoft-com:datatypes"><Description dt:dt="string">E-Prime Primary Realtime Clock</Description><StartTime><Timestamp dt:dt="int">0</Timestamp><DateUtc dt:dt="string">2014-09-15T21:28:40Z</DateUtc></StartTime><FrequencyChanges><FrequencyChange><Frequency dt:dt="r8">2327520000</Frequency><Timestamp dt:dt="r8">25026719220377</Timestamp><Current dt:dt="r8">0</Current><DateUtc dt:dt="string">2014-09-15T21:28:40Z</DateUtc></FrequencyChange></FrequencyChanges></Clock>\n,v4_BCL_f0_d-2-1,60.001,1.0.0.214,1,403664053,2.0.10.242,2.0.10.242,09-15-2014,9/15/2014 9:28:40 PM,17:28:40,2.0.10.147,110,,,,,,56,1,56,,,,1,,,d,,0.25,,,10.28,,,29.96,,,,,,TrialProc1,,,,vowel 1,vowel 2,2,875,398983,Block2,d1_f0_10_28_f2_29_96_dur_0_250_num_169.wav,,,,
v4_BCL_f0_d,2,1,<?xml version="1.0"?>\n<Clock xmlns:dt="urn:schemas-microsoft-com:datatypes"><Description dt:dt="string">E-Prime Primary Realtime Clock</Description><StartTime><Timestamp dt:dt="int">0</Timestamp><DateUtc dt:dt="string">2014-09-15T21:28:40Z</DateUtc></StartTime><FrequencyChanges><FrequencyChange><Frequency dt:dt="r8">2327520000</Frequency><Timestamp dt:dt="r8">25026719220377</Timestamp><Current dt:dt="r8">0</Current><DateUtc dt:dt="string">2014-09-15T21:28:40Z</DateUtc></FrequencyChange></FrequencyChanges></Clock>\n,v4_BCL_f0_d-2-1,60.001,1.0.0.214,1,403664053,2.0.10.242,2.0.10.242,09-15-2014,9/15/2014 9:28:40 PM,17:28:40,2.0.10.147,111,,,,,,57,1,57,,,,1,,,d,,0.248,,,10.2,,,29.49,,,,,,TrialProc1,,,,vowel 1,vowel 2,2,338,400146,Block2,d1_f0_10_20_f2_29_49_dur_0_248_num_149.wav,,,,
v4_BCL_f0_d,2,1,<?xml version="1.0"?>\n<Clock xmlns:dt="urn:schemas-microsoft-com:datatypes"><Description dt:dt="string">E-Prime Primary Realtime Clock</Description><StartTime><Timestamp dt:dt="int">0</Timestamp><DateUtc dt:dt="string">2014-09-15T21:28:40Z</DateUtc></StartTime><FrequencyChanges><FrequencyChange><Frequency dt:dt="r8">2327520000</Frequency><Timestamp dt:dt="r8">25026719220377</Timestamp><Current dt:dt="r8">0</Current><DateUtc dt:dt="string">2014-09-15T21:28:40Z</DateUtc></FrequencyChange></FrequencyChanges></Clock>\n,v4_BCL_f0_d-2-1,60.001,1.0.0.214,1,403664053,2.0.10.242,2.0.10.242,09-15-2014,9/15/2014 9:28:40 PM,17:28:40,2.0.10.147,112,,,,,,58,1,58,,,,2,,,d,,0.249,,,8.7,,,29.45,,,,,,TrialProc1,,,,vowel 1,vowel 2,1,560,401518,Block2,d2_f0_8_70_f2_29_45_dur_0_249_num_406.wav,,,,
v4_BCL_f0_d,2,1,<?xml version="1.0"?>\n<Clock xmlns:dt="urn:schemas-microsoft-com:datatypes"><Description dt:dt="string">E-Prime Primary Realtime Clock</Description><StartTime><Timestamp dt:dt="int">0</Timestamp><DateUtc dt:dt="string">2014-09-15T21:28:40Z</DateUtc></StartTime><FrequencyChanges><FrequencyChange><Frequency dt:dt="r8">2327520000</Frequency><Timestamp dt:dt="r8">25026719220377</Timestamp><Current dt:dt="r8">0</Current><DateUtc dt:dt="string">2014-09-15T21:28:40Z</DateUtc></FrequencyChange></FrequencyChanges></Clock>\n,v4_BCL_f0_d-2-1,60.001,1.0.0.214,1,403664053,2.0.10.242,2.0.10.242,09-15-2014,9/15/2014 9:28:40 PM,17:28:40,2.0.10.147,113,,,,,,59,1,59,,,,2,,,d,,0.253,,,9.32,,,29.35,,,,,,TrialProc1,,,,vowel 1,vowel 2,1,696,403021,Block2,d2_f0_9_32_f2_29_35_dur_0_253_num_417.wav,,,,
v4_BCL_f0_d,2,1,<?xml version="1.0"?>\n<Clock xmlns:dt="urn:schemas-microsoft-com:datatypes"><Description dt:dt="string">E-Prime Primary Realtime Clock</Description><StartTime><Timestamp dt:dt="int">0</Timestamp><DateUtc dt:dt="string">2014-09-15T21:28:40Z</DateUtc></StartTime><FrequencyChanges><FrequencyChange><Frequency dt:dt="r8">2327520000</Frequency><Timestamp dt:dt="r8">25026719220377</Timestamp><Current dt:dt="r8">0</Current><DateUtc dt:dt="string">2014-09-15T21:28:40Z</DateUtc></FrequencyChange></FrequencyChanges></Clock>\n,v4_BCL_f0_d-2-1,60.001,1.0.0.214,1,403664053,2.0.10.242,2.0.10.242,09-15-2014,9/15/2014 9:28:40 PM,17:28:40,2.0.10.147,114,,,,,,60,1,60,,,,2,,,d,,0.248,,,7.89,,,30.49,,,,,,TrialProc1,,,,vowel 1,vowel 2,1,277,404118,Block2,d2_f0_7_89_f2_30_49_dur_0_248_num_490.wav,,,,
v4_BCL_f0_d,2,1,<?xml version="1.0"?>\n<Clock xmlns:dt="urn:schemas-microsoft-com:datatypes"><Description dt:dt="string">E-Prime Primary Realtime Clock</Description><StartTime><Timestamp dt:dt="int">0</Timestamp><DateUtc dt:dt="string">2014-09-15T21:28:40Z</DateUtc></StartTime><FrequencyChanges><FrequencyChange><Frequency dt:dt="r8">2327520000</Frequency><Timestamp dt:dt="r8">25026719220377</Timestamp><Current dt:dt="r8">0</Current><DateUtc dt:dt="string">2014-09-15T21:28:40Z</DateUtc></FrequencyChange></FrequencyChanges></Clock>\n,v4_BCL_f0_d-2-1,60.001,1.0.0.214,1,403664053,2.0.10.242,2.0.10.242,09-15-2014,9/15/2014 9:28:40 PM,17:28:40,2.0.10.147,115,,,,,,61,1,61,,,,2,,,d,,0.247,,,8.22,,,29.62,,,,,,TrialProc1,,,,vowel 1,vowel 2,1,290,405215,Block2,d2_f0_8_22_f2_29_62_dur_0_247_num_485.wav,,,,
v4_BCL_f0_d,2,1,<?xml version="1.0"?>\n<Clock xmlns:dt="urn:schemas-microsoft-com:datatypes"><Description dt:dt="string">E-Prime Primary Realtime Clock</Description><StartTime><Timestamp dt:dt="int">0</Timestamp><DateUtc dt:dt="string">2014-09-15T21:28:40Z</DateUtc></StartTime><FrequencyChanges><FrequencyChange><Frequency dt:dt="r8">2327520000</Frequency><Timestamp dt:dt="r8">25026719220377</Timestamp><Current dt:dt="r8">0</Current><DateUtc dt:dt="string">2014-09-15T21:28:40Z</DateUtc></FrequencyChange></FrequencyChanges></Clock>\n,v4_BCL_f0_d-2-1,60.001,1.0.0.214,1,403664053,2.0.10.242,2.0.10.242,09-15-2014,9/15/2014 9:28:40 PM,17:28:40,2.0.10.147,116,,,,,,62,1,62,,,,2,,,d,,0.25,,,7.48,,,30.57,,,,,,TrialProc1,,,,vowel 1,vowel 2,1,143,406168,Block2,d2_f0_7_48_f2_30_57_dur_0_250_num_437.wav,,,,
v4_BCL_f0_d,2,1,<?xml version="1.0"?>\n<Clock xmlns:dt="urn:schemas-microsoft-com:datatypes"><Description dt:dt="string">E-Prime Primary Realtime Clock</Description><StartTime><Timestamp dt:dt="int">0</Timestamp><DateUtc dt:dt="string">2014-09-15T21:28:40Z</DateUtc></StartTime><FrequencyChanges><FrequencyChange><Frequency dt:dt="r8">2327520000</Frequency><Timestamp dt:dt="r8">25026719220377</Timestamp><Current dt:dt="r8">0</Current><DateUtc dt:dt="string">2014-09-15T21:28:40Z</DateUtc></FrequencyChange></FrequencyChanges></Clock>\n,v4_BCL_f0_d-2-1,60.001,1.0.0.214,1,403664053,2.0.10.242,2.0.10.242,09-15-2014,9/15/2014 9:28:40 PM,17:28:40,2.0.10.147,117,,,,,,63,1,63,,,,1,,,d,,0.248,,,10.74,,,29.29,,,,,,TrialProc1,,,,vowel 1,vowel 2,2,434,407425,Block2,d1_f0_10_74_f2_29_29_dur_0_248_num_168.wav,,,,
v4_BCL_f0_d,2,1,<?xml version="1.0"?>\n<Clock xmlns:dt="urn:schemas-microsoft-com:datatypes"><Description dt:dt="string">E-Prime Primary Realtime Clock</Description><StartTime><Timestamp dt:dt="int">0</Timestamp><DateUtc dt:dt="string">2014-09-15T21:28:40Z</DateUtc></StartTime><FrequencyChanges><FrequencyChange><Frequency dt:dt="r8">2327520000</Frequency><Timestamp dt:dt="r8">25026719220377</Timestamp><Current dt:dt="r8">0</Current><DateUtc dt:dt="string">2014-09-15T21:28:40Z</DateUtc></FrequencyChange></FrequencyChanges></Clock>\n,v4_BCL_f0_d-2-1,60.001,1.0.0.214,1,403664053,2.0.10.242,2.0.10.242,09-15-2014,9/15/2014 9:28:40 PM,17:28:40,2.0.10.147,118,,,,,,64,1,64,,,,1,,,d,,0.245,,,10.21,,,30.19,,,,,,TrialProc1,,,,vowel 1,vowel 2,1,414,408655,Block2,d1_f0_10_21_f2_30_19_dur_0_245_num_175.wav,,,,
v4_BCL_f0_d,2,1,<?xml version="1.0"?>\n<Clock xmlns:dt="urn:schemas-microsoft-com:datatypes"><Description dt:dt="string">E-Prime Primary Realtime Clock</Description><StartTime><Timestamp dt:dt="int">0</Timestamp><DateUtc dt:dt="string">2014-09-15T21:28:40Z</DateUtc></StartTime><FrequencyChanges><FrequencyChange><Frequency dt:dt="r8">2327520000</Frequency><Timestamp dt:dt="r8">25026719220377</Timestamp><Current dt:dt="r8">0</Current><DateUtc dt:dt="string">2014-09-15T21:28:40Z</DateUtc></FrequencyChange></FrequencyChanges></Clock>\n,v4_BCL_f0_d-2-1,60.001,1.0.0.214,1,403664053,2.0.10.242,2.0.10.242,09-15-2014,9/15/2014 9:28:40 PM,17:28:40,2.0.10.147,119,,,,,,65,1,65,,,,1,,,d,,0.249,,,9.7,,,30.07,,,,,,TrialProc1,,,,vowel 1,vowel 2,1,501,409959,Block2,d1_f0_9_70_f2_30_07_dur_0_249_num_104.wav,,,,
v4_BCL_f0_d,2,1,<?xml version="1.0"?>\n<Clock xmlns:dt="urn:schemas-microsoft-com:datatypes"><Description dt:dt="string">E-Prime Primary Realtime Clock</Description><StartTime><Timestamp dt:dt="int">0</Timestamp><DateUtc dt:dt="string">2014-09-15T21:28:40Z</DateUtc></StartTime><FrequencyChanges><FrequencyChange><Frequency dt:dt="r8">2327520000</Frequency><Timestamp dt:dt="r8">25026719220377</Timestamp><Current dt:dt="r8">0</Current><DateUtc dt:dt="string">2014-09-15T21:28:40Z</DateUtc></FrequencyChange></FrequencyChanges></Clock>\n,v4_BCL_f0_d-2-1,60.001,1.0.0.214,1,403664053,2.0.10.242,2.0.10.242,09-15-2014,9/15/2014 9:28:40 PM,17:28:40,2.0.10.147,120,,,,,,66,1,66,,,,1,,,d,,0.25,,,10.43,,,30.53,,,,,,TrialProc1,,,,vowel 1,vowel 2,2,1135,411910,Block2,d1_f0_10_43_f2_30_53_dur_0_250_num_138.wav,,,,
v4_BCL_f0_d,2,1,<?xml version="1.0"?>\n<Clock xmlns:dt="urn:schemas-microsoft-com:datatypes"><Description dt:dt="string">E-Prime Primary Realtime Clock</Description><StartTime><Timestamp dt:dt="int">0</Timestamp><DateUtc dt:dt="string">2014-09-15T21:28:40Z</DateUtc></StartTime><FrequencyChanges><FrequencyChange><Frequency dt:dt="r8">2327520000</Frequency><Timestamp dt:dt="r8">25026719220377</Timestamp><Current dt:dt="r8">0</Current><DateUtc dt:dt="string">2014-09-15T21:28:40Z</DateUtc></FrequencyChange></FrequencyChanges></Clock>\n,v4_BCL_f0_d-2-1,60.001,1.0.0.214,1,403664053,2.0.10.242,2.0.10.242,09-15-2014,9/15/2014 9:28:40 PM,17:28:40,2.0.10.147,121,,,,,,67,1,67,,,,2,,,d,,0.25,,,7.75,,,30,,,,,,TrialProc1,,,,vowel 1,vowel 2,1,102,412827,Block2,d2_f0_7_75_f2_30_00_dur_0_250_num_442.wav,,,,
v4_BCL_f0_d,2,1,<?xml version="1.0"?>\n<Clock xmlns:dt="urn:schemas-microsoft-com:datatypes"><Description dt:dt="string">E-Prime Primary Realtime Clock</Description><StartTime><Timestamp dt:dt="int">0</Timestamp><DateUtc dt:dt="string">2014-09-15T21:28:40Z</DateUtc></StartTime><FrequencyChanges><FrequencyChange><Frequency dt:dt="r8">2327520000</Frequency><Timestamp dt:dt="r8">25026719220377</Timestamp><Current dt:dt="r8">0</Current><DateUtc dt:dt="string">2014-09-15T21:28:40Z</DateUtc></FrequencyChange></FrequencyChanges></Clock>\n,v4_BCL_f0_d-2-1,60.001,1.0.0.214,1,403664053,2.0.10.242,2.0.10.242,09-15-2014,9/15/2014 9:28:40 PM,17:28:40,2.0.10.147,122,,,,,,68,1,68,,,,2,,,d,,0.255,,,7.81,,,30.04,,,,,,TrialProc1,,,,vowel 1,vowel 2,1,124,413765,Block2,d2_f0_7_81_f2_30_04_dur_0_255_num_430.wav,,,,
v4_BCL_f0_d,2,1,<?xml version="1.0"?>\n<Clock xmlns:dt="urn:schemas-microsoft-com:datatypes"><Description dt:dt="string">E-Prime Primary Realtime Clock</Description><StartTime><Timestamp dt:dt="int">0</Timestamp><DateUtc dt:dt="string">2014-09-15T21:28:40Z</DateUtc></StartTime><FrequencyChanges><FrequencyChange><Frequency dt:dt="r8">2327520000</Frequency><Timestamp dt:dt="r8">25026719220377</Timestamp><Current dt:dt="r8">0</Current><DateUtc dt:dt="string">2014-09-15T21:28:40Z</DateUtc></FrequencyChange></FrequencyChanges></Clock>\n,v4_BCL_f0_d-2-1,60.001,1.0.0.214,1,403664053,2.0.10.242,2.0.10.242,09-15-2014,9/15/2014 9:28:40 PM,17:28:40,2.0.10.147,123,,,,,,69,1,69,,,,2,,,d,,0.253,,,7.94,,,30.09,,,,,,TrialProc1,,,,vowel 1,vowel 2,1,118,414693,Block2,d2_f0_7_94_f2_30_09_dur_0_253_num_424.wav,,,,
v4_BCL_f0_d,2,1,<?xml version="1.0"?>\n<Clock xmlns:dt="urn:schemas-microsoft-com:datatypes"><Description dt:dt="string">E-Prime Primary Realtime Clock</Description><StartTime><Timestamp dt:dt="int">0</Timestamp><DateUtc dt:dt="string">2014-09-15T21:28:40Z</DateUtc></StartTime><FrequencyChanges><FrequencyChange><Frequency dt:dt="r8">2327520000</Frequency><Timestamp dt:dt="r8">25026719220377</Timestamp><Current dt:dt="r8">0</Current><DateUtc dt:dt="string">2014-09-15T21:28:40Z</DateUtc></FrequencyChange></FrequencyChanges></Clock>\n,v4_BCL_f0_d-2-1,60.001,1.0.0.214,1,403664053,2.0.10.242,2.0.10.242,09-15-2014,9/15/2014 9:28:40 PM,17:28:40,2.0.10.147,124,,,,,,70,1,70,,,,2,,,d,,0.256,,,8.92,,,29.95,,,,,,TrialProc1,,,,vowel 1,vowel 2,1,548,416056,Block2,d2_f0_8_92_f2_29_95_dur_0_256_num_409.wav,,,,
