ExperimentName,Subject,Session,Clock.Information,DataFile.Basename,Display.RefreshRate,ExperimentVersion,Group,RandomSeed,RuntimeVersion,RuntimeVersionExpected,SessionDate,SessionStartDateTimeUtc,SessionTime,StudioVersion,Block,A,B,Block1,Block1.Cycle,Block1.Sample,Block2,Block2.Cycle,Block2.Sample,Block3,Block3.Cycle,Block3.Sample,cat,catA,catB,cons,correct_resp,dur,durA,durB,f0,f0A,f0B,f2,f2A,f2B,PracticeList,PracticeList.Cycle,PracticeList.Sample,Procedure,resp.CRESP,resp.RESP,resp.RT,resp1,resp2,respond.RESP,respond.RT,respond.RTTime,Running,soundfile,testList,testList.Cycle,testList.Sample,X
v4_BCL_f0_g,8,1,<?xml version="1.0"?>\n<Clock xmlns:dt="urn:schemas-microsoft-com:datatypes"><Description dt:dt="string">E-Prime Primary Realtime Clock</Description><StartTime><Timestamp dt:dt="int">0</Timestamp><DateUtc dt:dt="string">2014-11-12T17:56:26Z</DateUtc></StartTime><FrequencyChanges><FrequencyChange><Frequency dt:dt="r8">2327520000</Frequency><Timestamp dt:dt="r8">315895328378</Timestamp><Current dt:dt="r8">0</Current><DateUtc dt:dt="string">2014-11-12T17:56:26Z</DateUtc></FrequencyChange></FrequencyChanges></Clock>\n,v4_BCL_f0_g-8-1,60.001,1.0.0.227,1,-1471148702,2.0.10.242,2.0.10.242,11-12-2014,11/12/2014 5:56:26 PM,12:56:26,2.0.10.147,1,,,,,,,,,,,,NA,,,NA,,NA,,,NA,,,NA,,,6,1,1,PracProc,,,,vowel 1,vowel 2,,0,0,PracticeList,say.wav,,,,
v4_BCL_f0_g,8,1,<?xml version="1.0"?>\n<Clock xmlns:dt="urn:schemas-microsoft-com:datatypes"><Description dt:dt="string">E-Prime Primary Realtime Clock</Description><StartTime><Timestamp dt:dt="int">0</Timestamp><DateUtc dt:dt="string">2014-11-12T17:56:26Z</DateUtc></StartTime><FrequencyChanges><FrequencyChange><Frequency dt:dt="r8">2327520000</Frequency><Timestamp dt:dt="r8">315895328378</Timestamp><Current dt:dt="r8">0</Current><DateUtc dt:dt="string">2014-11-12T17:56:26Z</DateUtc></FrequencyChange></FrequencyChanges></Clock>\n,v4_BCL_f0_g-8-1,60.001,1.0.0.227,1,-1471148702,2.0.10.242,2.0.10.242,11-12-2014,11/12/2014 5:56:26 PM,12:56:26,2.0.10.147,2,,,,,,,,,,,,NA,,,NA,,NA,,,NA,,,NA,,,1,1,2,PracProc,,,,vowel 1,vowel 2,2,497,123942,PracticeList,key.wav,,,,
v4_BCL_f0_g,8,1,<?xml version="1.0"?>\n<Clock xmlns:dt="urn:schemas-microsoft-com:datatypes"><Description dt:dt="string">E-Prime Primary Realtime Clock</Description><StartTime><Timestamp dt:dt="int">0</Timestamp><DateUtc dt:dt="string">2014-11-12T17:56:26Z</DateUtc></StartTime><FrequencyChanges><FrequencyChange><Frequency dt:dt="r8">2327520000</Frequency><Timestamp dt:dt="r8">315895328378</Timestamp><Current dt:dt="r8">0</Current><DateUtc dt:dt="string">2014-11-12T17:56:26Z</DateUtc></FrequencyChange></FrequencyChanges></Clock>\n,v4_BCL_f0_g-8-1,60.001,1.0.0.227,1,-1471148702,2.0.10.242,2.0.10.242,11-12-2014,11/12/2014 5:56:26 PM,12:56:26,2.0.10.147,3,,,,,,,,,,,,NA,,,NA,,NA,,,NA,,,NA,,,5,1,3,PracProc,,,,vowel 1,vowel 2,2,529,125374,PracticeList,see.wav,,,,
v4_BCL_f0_g,8,1,<?xml version="1.0"?>\n<Clock xmlns:dt="urn:schemas-microsoft-com:datatypes"><Description dt:dt="string">E-Prime Primary Realtime Clock</Description><StartTime><Timestamp dt:dt="int">0</Timestamp><DateUtc dt:dt="string">2014-11-12T17:56:26Z</DateUtc></StartTime><FrequencyChanges><FrequencyChange><Frequency dt:dt="r8">2327520000</Frequency><Timestamp dt:dt="r8">315895328378</Timestamp><Current dt:dt="r8">0</Current><DateUtc dt:dt="string">2014-11-12T17:56:26Z</DateUtc></FrequencyChange></FrequencyChanges></Clock>\n,v4_BCL_f0_g-8-1,60.001,1.0.0.227,1,-1471148702,2.0.10.242,2.0.10.242,11-12-2014,11/12/2014 5:56:26 PM,12:56:26,2.0.10.147,4,,,,,,,,,,,,NA,,,NA,,NA,,,NA,,,NA,,,4,1,4,PracProc,,,,vowel 1,vowel 2,1,86,126364,PracticeList,tay.wav,,,,
v4_BCL_f0_g,8,1,<?xml version="1.0"?>\n<Clock xmlns:dt="urn:schemas-microsoft-com:datatypes"><Description dt:dt="string">E-Prime Primary Realtime Clock</Description><StartTime><Timestamp dt:dt="int">0</Timestamp><DateUtc dt:dt="string">2014-11-12T17:56:26Z</DateUtc></StartTime><FrequencyChanges><FrequencyChange><Frequency dt:dt="r8">2327520000</Frequency><Timestamp dt:dt="r8">315895328378</Timestamp><Current dt:dt="r8">0</Current><DateUtc dt:dt="string">2014-11-12T17:56:26Z</DateUtc></FrequencyChange></FrequencyChanges></Clock>\n,v4_BCL_f0_g-8-1,60.001,1.0.0.227,1,-1471148702,2.0.10.242,2.0.10.242,11-12-2014,11/12/2014 5:56:26 PM,12:56:26,2.0.10.147,5,,,,,,,,,,,,NA,,,NA,,NA,,,NA,,,NA,,,2,1,5,PracProc,,,,vowel 1,vowel 2,1,338,127616,PracticeList,kay.wav,,,,
v4_BCL_f0_g,8,1,<?xml version="1.0"?>\n<Clock xmlns:dt="urn:schemas-microsoft-com:datatypes"><Description dt:dt="string">E-Prime Primary Realtime Clock</Description><StartTime><Timestamp dt:dt="int">0</Timestamp><DateUtc dt:dt="string">2014-11-12T17:56:26Z</DateUtc></StartTime><FrequencyChanges><FrequencyChange><Frequency dt:dt="r8">2327520000</Frequency><Timestamp dt:dt="r8">315895328378</Timestamp><Current dt:dt="r8">0</Current><DateUtc dt:dt="string">2014-11-12T17:56:26Z</DateUtc></FrequencyChange></FrequencyChanges></Clock>\n,v4_BCL_f0_g-8-1,60.001,1.0.0.227,1,-1471148702,2.0.10.242,2.0.10.242,11-12-2014,11/12/2014 5:56:26 PM,12:56:26,2.0.10.147,6,,,,,,,,,,,,NA,,,NA,,NA,,,NA,,,NA,,,3,1,6,PracProc,,,,vowel 1,vowel 2,2,89,128617,PracticeList,tea.wav,,,,
v4_BCL_f0_g,8,1,<?xml version="1.0"?>\n<Clock xmlns:dt="urn:schemas-microsoft-com:datatypes"><Description dt:dt="string">E-Prime Primary Realtime Clock</Description><StartTime><Timestamp dt:dt="int">0</Timestamp><DateUtc dt:dt="string">2014-11-12T17:56:26Z</DateUtc></StartTime><FrequencyChanges><FrequencyChange><Frequency dt:dt="r8">2327520000</Frequency><Timestamp dt:dt="r8">315895328378</Timestamp><Current dt:dt="r8">0</Current><DateUtc dt:dt="string">2014-11-12T17:56:26Z</DateUtc></FrequencyChange></FrequencyChanges></Clock>\n,v4_BCL_f0_g-8-1,60.001,1.0.0.227,1,-1471148702,2.0.10.242,2.0.10.242,11-12-2014,11/12/2014 5:56:26 PM,12:56:26,2.0.10.147,7,,,,,,,,,,,,NA,,,NA,,NA,,,NA,,,NA,,,6,2,7,PracProc,,,,vowel 1,vowel 2,1,131,129659,PracticeList,say.wav,,,,
v4_BCL_f0_g,8,1,<?xml version="1.0"?>\n<Clock xmlns:dt="urn:schemas-microsoft-com:datatypes"><Description dt:dt="string">E-Prime Primary Realtime Clock</Description><StartTime><Timestamp dt:dt="int">0</Timestamp><DateUtc dt:dt="string">2014-11-12T17:56:26Z</DateUtc></StartTime><FrequencyChanges><FrequencyChange><Frequency dt:dt="r8">2327520000</Frequency><Timestamp dt:dt="r8">315895328378</Timestamp><Current dt:dt="r8">0</Current><DateUtc dt:dt="string">2014-11-12T17:56:26Z</DateUtc></FrequencyChange></FrequencyChanges></Clock>\n,v4_BCL_f0_g-8-1,60.001,1.0.0.227,1,-1471148702,2.0.10.242,2.0.10.242,11-12-2014,11/12/2014 5:56:26 PM,12:56:26,2.0.10.147,8,,,,,,,,,,,,NA,,,NA,,NA,,,NA,,,NA,,,5,2,8,PracProc,,,,vowel 1,vowel 2,2,175,130737,PracticeList,see.wav,,,,
v4_BCL_f0_g,8,1,<?xml version="1.0"?>\n<Clock xmlns:dt="urn:schemas-microsoft-com:datatypes"><Description dt:dt="string">E-Prime Primary Realtime Clock</Description><StartTime><Timestamp dt:dt="int">0</Timestamp><DateUtc dt:dt="string">2014-11-12T17:56:26Z</DateUtc></StartTime><FrequencyChanges><FrequencyChange><Frequency dt:dt="r8">2327520000</Frequency><Timestamp dt:dt="r8">315895328378</Timestamp><Current dt:dt="r8">0</Current><DateUtc dt:dt="string">2014-11-12T17:56:26Z</DateUtc></FrequencyChange></FrequencyChanges></Clock>\n,v4_BCL_f0_g-8-1,60.001,1.0.0.227,1,-1471148702,2.0.10.242,2.0.10.242,11-12-2014,11/12/2014 5:56:26 PM,12:56:26,2.0.10.147,9,,,,,,,,,,,,NA,,,NA,,NA,,,NA,,,NA,,,1,2,9,PracProc,,,,vowel 1,vowel 2,2,99,131744,PracticeList,key.wav,,,,
v4_BCL_f0_g,8,1,<?xml version="1.0"?>\n<Clock xmlns:dt="urn:schemas-microsoft-com:datatypes"><Description dt:dt="string">E-Prime Primary Realtime Clock</Description><StartTime><Timestamp dt:dt="int">0</Timestamp><DateUtc dt:dt="string">2014-11-12T17:56:26Z</DateUtc></StartTime><FrequencyChanges><FrequencyChange><Frequency dt:dt="r8">2327520000</Frequency><Timestamp dt:dt="r8">315895328378</Timestamp><Current dt:dt="r8">0</Current><DateUtc dt:dt="string">2014-11-12T17:56:26Z</DateUtc></FrequencyChange></FrequencyChanges></Clock>\n,v4_BCL_f0_g-8-1,60.001,1.0.0.227,1,-1471148702,2.0.10.242,2.0.10.242,11-12-2014,11/12/2014 5:56:26 PM,12:56:26,2.0.10.147,10,,,,,,,,,,,,NA,,,NA,,NA,,,NA,,,NA,,,4,2,10,PracProc,,,,vowel 1,vowel 2,1,148,132810,PracticeList,tay.wav,,,,
v4_BCL_f0_g,8,1,<?xml version="1.0"?>\n<Clock xmlns:dt="urn:schemas-microsoft-com:datatypes"><Description dt:dt="string">E-Prime Primary Realtime Clock</Description><StartTime><Timestamp dt:dt="int">0</Timestamp><DateUtc dt:dt="string">2014-11-12T17:56:26Z</DateUtc></StartTime><FrequencyChanges><FrequencyChange><Frequency dt:dt="r8">2327520000</Frequency><Timestamp dt:dt="r8">315895328378</Timestamp><Current dt:dt="r8">0</Current><DateUtc dt:dt="string">2014-11-12T17:56:26Z</DateUtc></FrequencyChange></FrequencyChanges></Clock>\n,v4_BCL_f0_g-8-1,60.001,1.0.0.227,1,-1471148702,2.0.10.242,2.0.10.242,11-12-2014,11/12/2014 5:56:26 PM,12:56:26,2.0.10.147,11,,,,,,,,,,,,NA,,,NA,,NA,,,NA,,,NA,,,3,2,11,PracProc,,,,vowel 1,vowel 2,2,112,133840,PracticeList,tea.wav,,,,
v4_BCL_f0_g,8,1,<?xml version="1.0"?>\n<Clock xmlns:dt="urn:schemas-microsoft-com:datatypes"><Description dt:dt="string">E-Prime Primary Realtime Clock</Description><StartTime><Timestamp dt:dt="int">0</Timestamp><DateUtc dt:dt="string">2014-11-12T17:56:26Z</DateUtc></StartTime><FrequencyChanges><FrequencyChange><Frequency dt:dt="r8">2327520000</Frequency><Timestamp dt:dt="r8">315895328378</Timestamp><Current dt:dt="r8">0</Current><DateUtc dt:dt="string">2014-11-12T17:56:26Z</DateUtc></FrequencyChange></FrequencyChanges></Clock>\n,v4_BCL_f0_g-8-1,60.001,1.0.0.227,1,-1471148702,2.0.10.242,2.0.10.242,11-12-2014,11/12/2014 5:56:26 PM,12:56:26,2.0.10.147,12,,,,,,,,,,,,NA,,,NA,,NA,,,NA,,,NA,,,2,2,12,PracProc,,,,vowel 1,vowel 2,1,62,134823,PracticeList,kay.wav,,,,
v4_BCL_f0_g,8,1,<?xml version="1.0"?>\n<Clock xmlns:dt="urn:schemas-microsoft-com:datatypes"><Description dt:dt="string">E-Prime Primary Realtime Clock</Description><StartTime><Timestamp dt:dt="int">0</Timestamp><DateUtc dt:dt="string">2014-11-12T17:56:26Z</DateUtc></StartTime><FrequencyChanges><FrequencyChange><Frequency dt:dt="r8">2327520000</Frequency><Timestamp dt:dt="r8">315895328378</Timestamp><Current dt:dt="r8">0</Current><DateUtc dt:dt="string">2014-11-12T17:56:26Z</DateUtc></FrequencyChange></FrequencyChanges></Clock>\n,v4_BCL_f0_g-8-1,60.001,1.0.0.227,1,-1471148702,2.0.10.242,2.0.10.242,11-12-2014,11/12/2014 5:56:26 PM,12:56:26,2.0.10.147,13,,,,,,,,,,,,NA,,,NA,,NA,,,NA,,,NA,,,6,3,13,PracProc,,,,vowel 1,vowel 2,1,148,135876,PracticeList,say.wav,,,,
v4_BCL_f0_g,8,1,<?xml version="1.0"?>\n<Clock xmlns:dt="urn:schemas-microsoft-com:datatypes"><Description dt:dt="string">E-Prime Primary Realtime Clock</Description><StartTime><Timestamp dt:dt="int">0</Timestamp><DateUtc dt:dt="string">2014-11-12T17:56:26Z</DateUtc></StartTime><FrequencyChanges><FrequencyChange><Frequency dt:dt="r8">2327520000</Frequency><Timestamp dt:dt="r8">315895328378</Timestamp><Current dt:dt="r8">0</Current><DateUtc dt:dt="string">2014-11-12T17:56:26Z</DateUtc></FrequencyChange></FrequencyChanges></Clock>\n,v4_BCL_f0_g-8-1,60.001,1.0.0.227,1,-1471148702,2.0.10.242,2.0.10.242,11-12-2014,11/12/2014 5:56:26 PM,12:56:26,2.0.10.147,14,,,,,,,,,,,,NA,,,NA,,NA,,,NA,,,NA,,,3,3,14,PracProc,,,,vowel 1,vowel 2,2,27,136822,PracticeList,tea.wav,,,,
v4_BCL_f0_g,8,1,<?xml version="1.0"?>\n<Clock xmlns:dt="urn:schemas-microsoft-com:datatypes"><Description dt:dt="string">E-Prime Primary Realtime Clock</Description><StartTime><Timestamp dt:dt="int">0</Timestamp><DateUtc dt:dt="string">2014-11-12T17:56:26Z</DateUtc></StartTime><FrequencyChanges><FrequencyChange><Frequency dt:dt="r8">2327520000</Frequency><Timestamp dt:dt="r8">315895328378</Timestamp><Current dt:dt="r8">0</Current><DateUtc dt:dt="string">2014-11-12T17:56:26Z</DateUtc></FrequencyChange></FrequencyChanges></Clock>\n,v4_BCL_f0_g-8-1,60.001,1.0.0.227,1,-1471148702,2.0.10.242,2.0.10.242,11-12-2014,11/12/2014 5:56:26 PM,12:56:26,2.0.10.147,15,,,,,,,,,,,,NA,,,NA,,NA,,,NA,,,NA,,,2,3,15,PracProc,,,,vowel 1,vowel 2,1,440,138185,PracticeList,kay.wav,,,,
v4_BCL_f0_g,8,1,<?xml version="1.0"?>\n<Clock xmlns:dt="urn:schemas-microsoft-com:datatypes"><Description dt:dt="string">E-Prime Primary Realtime Clock</Description><StartTime><Timestamp dt:dt="int">0</Timestamp><DateUtc dt:dt="string">2014-11-12T17:56:26Z</DateUtc></StartTime><FrequencyChanges><FrequencyChange><Frequency dt:dt="r8">2327520000</Frequency><Timestamp dt:dt="r8">315895328378</Timestamp><Current dt:dt="r8">0</Current><DateUtc dt:dt="string">2014-11-12T17:56:26Z</DateUtc></FrequencyChange></FrequencyChanges></Clock>\n,v4_BCL_f0_g-8-1,60.001,1.0.0.227,1,-1471148702,2.0.10.242,2.0.10.242,11-12-2014,11/12/2014 5:56:26 PM,12:56:26,2.0.10.147,16,,,,,,,,,,,,NA,,,NA,,NA,,,NA,,,NA,,,5,3,16,PracProc,,,,vowel 1,vowel 2,2,470,139565,PracticeList,see.wav,,,,
v4_BCL_f0_g,8,1,<?xml version="1.0"?>\n<Clock xmlns:dt="urn:schemas-microsoft-com:datatypes"><Description dt:dt="string">E-Prime Primary Realtime Clock</Description><StartTime><Timestamp dt:dt="int">0</Timestamp><DateUtc dt:dt="string">2014-11-12T17:56:26Z</DateUtc></StartTime><FrequencyChanges><FrequencyChange><Frequency dt:dt="r8">2327520000</Frequency><Timestamp dt:dt="r8">315895328378</Timestamp><Current dt:dt="r8">0</Current><DateUtc dt:dt="string">2014-11-12T17:56:26Z</DateUtc></FrequencyChange></FrequencyChanges></Clock>\n,v4_BCL_f0_g-8-1,60.001,1.0.0.227,1,-1471148702,2.0.10.242,2.0.10.242,11-12-2014,11/12/2014 5:56:26 PM,12:56:26,2.0.10.147,17,,,,,,,,,,,,NA,,,NA,,NA,,,NA,,,NA,,,4,3,17,PracProc,,,,vowel 1,vowel 2,1,11,140489,PracticeList,tay.wav,,,,
v4_BCL_f0_g,8,1,<?xml version="1.0"?>\n<Clock xmlns:dt="urn:schemas-microsoft-com:datatypes"><Description dt:dt="string">E-Prime Primary Realtime Clock</Description><StartTime><Timestamp dt:dt="int">0</Timestamp><DateUtc dt:dt="string">2014-11-12T17:56:26Z</DateUtc></StartTime><FrequencyChanges><FrequencyChange><Frequency dt:dt="r8">2327520000</Frequency><Timestamp dt:dt="r8">315895328378</Timestamp><Current dt:dt="r8">0</Current><DateUtc dt:dt="string">2014-11-12T17:56:26Z</DateUtc></FrequencyChange></FrequencyChanges></Clock>\n,v4_BCL_f0_g-8-1,60.001,1.0.0.227,1,-1471148702,2.0.10.242,2.0.10.242,11-12-2014,11/12/2014 5:56:26 PM,12:56:26,2.0.10.147,18,,,,,,,,,,,,NA,,,NA,,NA,,,NA,,,NA,,,1,3,18,PracProc,,,,vowel 1,vowel 2,2,58,141469,PracticeList,key.wav,,,,
v4_BCL_f0_g,8,1,<?xml version="1.0"?>\n<Clock xmlns:dt="urn:schemas-microsoft-com:datatypes"><Description dt:dt="string">E-Prime Primary Realtime Clock</Description><StartTime><Timestamp dt:dt="int">0</Timestamp><DateUtc dt:dt="string">2014-11-12T17:56:26Z</DateUtc></StartTime><FrequencyChanges><FrequencyChange><Frequency dt:dt="r8">2327520000</Frequency><Timestamp dt:dt="r8">315895328378</Timestamp><Current dt:dt="r8">0</Current><DateUtc dt:dt="string">2014-11-12T17:56:26Z</DateUtc></FrequencyChange></FrequencyChanges></Clock>\n,v4_BCL_f0_g-8-1,60.001,1.0.0.227,1,-1471148702,2.0.10.242,2.0.10.242,11-12-2014,11/12/2014 5:56:26 PM,12:56:26,2.0.10.147,19,,,24,1,1,,,,,,,2,,,d,,0.256,,,7.69,,,30.74,,,,,,ExposureProc,,,,vowel 1,vowel 2,,,,Block1,d2_f0_7_69_f2_30_74_dur_0_256_num_453.wav,,,,
v4_BCL_f0_g,8,1,<?xml version="1.0"?>\n<Clock xmlns:dt="urn:schemas-microsoft-com:datatypes"><Description dt:dt="string">E-Prime Primary Realtime Clock</Description><StartTime><Timestamp dt:dt="int">0</Timestamp><DateUtc dt:dt="string">2014-11-12T17:56:26Z</DateUtc></StartTime><FrequencyChanges><FrequencyChange><Frequency dt:dt="r8">2327520000</Frequency><Timestamp dt:dt="r8">315895328378</Timestamp><Current dt:dt="r8">0</Current><DateUtc dt:dt="string">2014-11-12T17:56:26Z</DateUtc></FrequencyChange></FrequencyChanges></Clock>\n,v4_BCL_f0_g-8-1,60.001,1.0.0.227,1,-1471148702,2.0.10.242,2.0.10.242,11-12-2014,11/12/2014 5:56:26 PM,12:56:26,2.0.10.147,20,,,10,1,2,,,,,,,2,,,b,,0.25,,,8.55,,,29.15,,,,,,ExposureProc,,,,vowel 1,vowel 2,,,,Block1,b2_f0_8_55_f2_29_15_dur_0_250_num_310.wav,,,,
v4_BCL_f0_g,8,1,<?xml version="1.0"?>\n<Clock xmlns:dt="urn:schemas-microsoft-com:datatypes"><Description dt:dt="string">E-Prime Primary Realtime Clock</Description><StartTime><Timestamp dt:dt="int">0</Timestamp><DateUtc dt:dt="string">2014-11-12T17:56:26Z</DateUtc></StartTime><FrequencyChanges><FrequencyChange><Frequency dt:dt="r8">2327520000</Frequency><Timestamp dt:dt="r8">315895328378</Timestamp><Current dt:dt="r8">0</Current><DateUtc dt:dt="string">2014-11-12T17:56:26Z</DateUtc></FrequencyChange></FrequencyChanges></Clock>\n,v4_BCL_f0_g-8-1,60.001,1.0.0.227,1,-1471148702,2.0.10.242,2.0.10.242,11-12-2014,11/12/2014 5:56:26 PM,12:56:26,2.0.10.147,21,,,34,1,3,,,,,,,1,,,g,,0.254,,,10.17,,,30.19,,,,,,ExposureProc,,,,vowel 1,vowel 2,,,,Block1,g1_f0_10_17_f2_30_19_dur_0_254_num_293.wav,,,,
v4_BCL_f0_g,8,1,<?xml version="1.0"?>\n<Clock xmlns:dt="urn:schemas-microsoft-com:datatypes"><Description dt:dt="string">E-Prime Primary Realtime Clock</Description><StartTime><Timestamp dt:dt="int">0</Timestamp><DateUtc dt:dt="string">2014-11-12T17:56:26Z</DateUtc></StartTime><FrequencyChanges><FrequencyChange><Frequency dt:dt="r8">2327520000</Frequency><Timestamp dt:dt="r8">315895328378</Timestamp><Current dt:dt="r8">0</Current><DateUtc dt:dt="string">2014-11-12T17:56:26Z</DateUtc></FrequencyChange></FrequencyChanges></Clock>\n,v4_BCL_f0_g-8-1,60.001,1.0.0.227,1,-1471148702,2.0.10.242,2.0.10.242,11-12-2014,11/12/2014 5:56:26 PM,12:56:26,2.0.10.147,22,,,19,1,4,,,,,,,1,,,d,,0.248,,,9,,,31.15,,,,,,ExposureProc,,,,vowel 1,vowel 2,,,,Block1,d1_f0_9_00_f2_31_15_dur_0_248_num_110.wav,,,,
v4_BCL_f0_g,8,1,<?xml version="1.0"?>\n<Clock xmlns:dt="urn:schemas-microsoft-com:datatypes"><Description dt:dt="string">E-Prime Primary Realtime Clock</Description><StartTime><Timestamp dt:dt="int">0</Timestamp><DateUtc dt:dt="string">2014-11-12T17:56:26Z</DateUtc></StartTime><FrequencyChanges><FrequencyChange><Frequency dt:dt="r8">2327520000</Frequency><Timestamp dt:dt="r8">315895328378</Timestamp><Current dt:dt="r8">0</Current><DateUtc dt:dt="string">2014-11-12T17:56:26Z</DateUtc></FrequencyChange></FrequencyChanges></Clock>\n,v4_BCL_f0_g-8-1,60.001,1.0.0.227,1,-1471148702,2.0.10.242,2.0.10.242,11-12-2014,11/12/2014 5:56:26 PM,12:56:26,2.0.10.147,23,,,21,1,5,,,,,,,1,,,d,,0.248,,,9.04,,,30.69,,,,,,ExposureProc,,,,vowel 1,vowel 2,,,,Block1,d1_f0_9_04_f2_30_69_dur_0_248_num_161.wav,,,,
v4_BCL_f0_g,8,1,<?xml version="1.0"?>\n<Clock xmlns:dt="urn:schemas-microsoft-com:datatypes"><Description dt:dt="string">E-Prime Primary Realtime Clock</Description><StartTime><Timestamp dt:dt="int">0</Timestamp><DateUtc dt:dt="string">2014-11-12T17:56:26Z</DateUtc></StartTime><FrequencyChanges><FrequencyChange><Frequency dt:dt="r8">2327520000</Frequency><Timestamp dt:dt="r8">315895328378</Timestamp><Current dt:dt="r8">0</Current><DateUtc dt:dt="string">2014-11-12T17:56:26Z</DateUtc></FrequencyChange></FrequencyChanges></Clock>\n,v4_BCL_f0_g-8-1,60.001,1.0.0.227,1,-1471148702,2.0.10.242,2.0.10.242,11-12-2014,11/12/2014 5:56:26 PM,12:56:26,2.0.10.147,24,,,23,1,6,,,,,,,1,,,d,,0.253,,,8.34,,,30.79,,,,,,ExposureProc,,,,vowel 1,vowel 2,,,,Block1,d1_f0_8_34_f2_30_79_dur_0_253_num_131.wav,,,,
v4_BCL_f0_g,8,1,<?xml version="1.0"?>\n<Clock xmlns:dt="urn:schemas-microsoft-com:datatypes"><Description dt:dt="string">E-Prime Primary Realtime Clock</Description><StartTime><Timestamp dt:dt="int">0</Timestamp><DateUtc dt:dt="string">2014-11-12T17:56:26Z</DateUtc></StartTime><FrequencyChanges><FrequencyChange><Frequency dt:dt="r8">2327520000</Frequency><Timestamp dt:dt="r8">315895328378</Timestamp><Current dt:dt="r8">0</Current><DateUtc dt:dt="string">2014-11-12T17:56:26Z</DateUtc></FrequencyChange></FrequencyChanges></Clock>\n,v4_BCL_f0_g-8-1,60.001,1.0.0.227,1,-1471148702,2.0.10.242,2.0.10.242,11-12-2014,11/12/2014 5:56:26 PM,12:56:26,2.0.10.147,25,,,4,1,7,,,,,,,1,,,b,,0.248,,,9.56,,,30.78,,,,,,ExposureProc,,,,vowel 1,vowel 2,,,,Block1,b1_f0_9_56_f2_30_78_dur_0_248_num_7.wav,,,,
v4_BCL_f0_g,8,1,<?xml version="1.0"?>\n<Clock xmlns:dt="urn:schemas-microsoft-com:datatypes"><Description dt:dt="string">E-Prime Primary Realtime Clock</Description><StartTime><Timestamp dt:dt="int">0</Timestamp><DateUtc dt:dt="string">2014-11-12T17:56:26Z</DateUtc></StartTime><FrequencyChanges><FrequencyChange><Frequency dt:dt="r8">2327520000</Frequency><Timestamp dt:dt="r8">315895328378</Timestamp><Current dt:dt="r8">0</Current><DateUtc dt:dt="string">2014-11-12T17:56:26Z</DateUtc></FrequencyChange></FrequencyChanges></Clock>\n,v4_BCL_f0_g-8-1,60.001,1.0.0.227,1,-1471148702,2.0.10.242,2.0.10.242,11-12-2014,11/12/2014 5:56:26 PM,12:56:26,2.0.10.147,26,,,35,1,8,,,,,,,2,,,g,,0.254,,,8.14,,,29.4,,,,,,ExposureProc,,,,vowel 1,vowel 2,,,,Block1,g2_f0_8_14_f2_29_40_dur_0_254_num_593.wav,,,,
v4_BCL_f0_g,8,1,<?xml version="1.0"?>\n<Clock xmlns:dt="urn:schemas-microsoft-com:datatypes"><Description dt:dt="string">E-Prime Primary Realtime Clock</Description><StartTime><Timestamp dt:dt="int">0</Timestamp><DateUtc dt:dt="string">2014-11-12T17:56:26Z</DateUtc></StartTime><FrequencyChanges><FrequencyChange><Frequency dt:dt="r8">2327520000</Frequency><Timestamp dt:dt="r8">315895328378</Timestamp><Current dt:dt="r8">0</Current><DateUtc dt:dt="string">2014-11-12T17:56:26Z</DateUtc></FrequencyChange></FrequencyChanges></Clock>\n,v4_BCL_f0_g-8-1,60.001,1.0.0.227,1,-1471148702,2.0.10.242,2.0.10.242,11-12-2014,11/12/2014 5:56:26 PM,12:56:26,2.0.10.147,27,,,32,1,9,,,,,,,2,,,g,,0.248,,,8.4,,,28.96,,,,,,ExposureProc,,,,vowel 1,vowel 2,,,,Block1,g2_f0_8_40_f2_28_96_dur_0_248_num_564.wav,,,,
v4_BCL_f0_g,8,1,<?xml version="1.0"?>\n<Clock xmlns:dt="urn:schemas-microsoft-com:datatypes"><Description dt:dt="string">E-Prime Primary Realtime Clock</Description><StartTime><Timestamp dt:dt="int">0</Timestamp><DateUtc dt:dt="string">2014-11-12T17:56:26Z</DateUtc></StartTime><FrequencyChanges><FrequencyChange><Frequency dt:dt="r8">2327520000</Frequency><Timestamp dt:dt="r8">315895328378</Timestamp><Current dt:dt="r8">0</Current><DateUtc dt:dt="string">2014-11-12T17:56:26Z</DateUtc></FrequencyChange></FrequencyChanges></Clock>\n,v4_BCL_f0_g-8-1,60.001,1.0.0.227,1,-1471148702,2.0.10.242,2.0.10.242,11-12-2014,11/12/2014 5:56:26 PM,12:56:26,2.0.10.147,28,,,29,1,10,,,,,,,1,,,g,,0.25,,,9.5,,,29.69,,,,,,ExposureProc,,,,vowel 1,vowel 2,,,,Block1,g1_f0_9_50_f2_29_69_dur_0_250_num_202.wav,,,,
v4_BCL_f0_g,8,1,<?xml version="1.0"?>\n<Clock xmlns:dt="urn:schemas-microsoft-com:datatypes"><Description dt:dt="string">E-Prime Primary Realtime Clock</Description><StartTime><Timestamp dt:dt="int">0</Timestamp><DateUtc dt:dt="string">2014-11-12T17:56:26Z</DateUtc></StartTime><FrequencyChanges><FrequencyChange><Frequency dt:dt="r8">2327520000</Frequency><Timestamp dt:dt="r8">315895328378</Timestamp><Current dt:dt="r8">0</Current><DateUtc dt:dt="string">2014-11-12T17:56:26Z</DateUtc></FrequencyChange></FrequencyChanges></Clock>\n,v4_BCL_f0_g-8-1,60.001,1.0.0.227,1,-1471148702,2.0.10.242,2.0.10.242,11-12-2014,11/12/2014 5:56:26 PM,12:56:26,2.0.10.147,29,,,6,1,11,,,,,,,2,,,b,,0.249,,,8.88,,,29.03,,,,,,ExposureProc,,,,vowel 1,vowel 2,,,,Block1,b2_f0_8_88_f2_29_03_dur_0_249_num_356.wav,,,,
v4_BCL_f0_g,8,1,<?xml version="1.0"?>\n<Clock xmlns:dt="urn:schemas-microsoft-com:datatypes"><Description dt:dt="string">E-Prime Primary Realtime Clock</Description><StartTime><Timestamp dt:dt="int">0</Timestamp><DateUtc dt:dt="string">2014-11-12T17:56:26Z</DateUtc></StartTime><FrequencyChanges><FrequencyChange><Frequency dt:dt="r8">2327520000</Frequency><Timestamp dt:dt="r8">315895328378</Timestamp><Current dt:dt="r8">0</Current><DateUtc dt:dt="string">2014-11-12T17:56:26Z</DateUtc></FrequencyChange></FrequencyChanges></Clock>\n,v4_BCL_f0_g-8-1,60.001,1.0.0.227,1,-1471148702,2.0.10.242,2.0.10.242,11-12-2014,11/12/2014 5:56:26 PM,12:56:26,2.0.10.147,30,,,15,1,12,,,,,,,1,,,d,,0.247,,,10.82,,,29.95,,,,,,ExposureProc,,,,vowel 1,vowel 2,,,,Block1,d1_f0_10_82_f2_29_95_dur_0_247_num_181.wav,,,,
v4_BCL_f0_g,8,1,<?xml version="1.0"?>\n<Clock xmlns:dt="urn:schemas-microsoft-com:datatypes"><Description dt:dt="string">E-Prime Primary Realtime Clock</Description><StartTime><Timestamp dt:dt="int">0</Timestamp><DateUtc dt:dt="string">2014-11-12T17:56:26Z</DateUtc></StartTime><FrequencyChanges><FrequencyChange><Frequency dt:dt="r8">2327520000</Frequency><Timestamp dt:dt="r8">315895328378</Timestamp><Current dt:dt="r8">0</Current><DateUtc dt:dt="string">2014-11-12T17:56:26Z</DateUtc></FrequencyChange></FrequencyChanges></Clock>\n,v4_BCL_f0_g-8-1,60.001,1.0.0.227,1,-1471148702,2.0.10.242,2.0.10.242,11-12-2014,11/12/2014 5:56:26 PM,12:56:26,2.0.10.147,31,,,18,1,13,,,,,,,2,,,d,,0.25,,,9.68,,,28.69,,,,,,ExposureProc,,,,vowel 1,vowel 2,,,,Block1,d2_f0_9_68_f2_28_69_dur_0_250_num_477.wav,,,,
v4_BCL_f0_g,8,1,<?xml version="1.0"?>\n<Clock xmlns:dt="urn:schemas-microsoft-com:datatypes"><Description dt:dt="string">E-Prime Primary Realtime Clock</Description><StartTime><Timestamp dt:dt="int">0</Timestamp><DateUtc dt:dt="string">2014-11-12T17:56:26Z</DateUtc></StartTime><FrequencyChanges><FrequencyChange><Frequency dt:dt="r8">2327520000</Frequency><Timestamp dt:dt="r8">315895328378</Timestamp><Current dt:dt="r8">0</Current><DateUtc dt:dt="string">2014-11-12T17:56:26Z</DateUtc></FrequencyChange></FrequencyChanges></Clock>\n,v4_BCL_f0_g-8-1,60.001,1.0.0.227,1,-1471148702,2.0.10.242,2.0.10.242,11-12-2014,11/12/2014 5:56:26 PM,12:56:26,2.0.10.147,32,,,25,1,14,,,,,,,1,,,g,,0.251,,,10.64,,,29.26,,,,,,ExposureProc,,,,vowel 1,vowel 2,,,,Block1,g1_f0_10_64_f2_29_26_dur_0_251_num_296.wav,,,,
v4_BCL_f0_g,8,1,<?xml version="1.0"?>\n<Clock xmlns:dt="urn:schemas-microsoft-com:datatypes"><Description dt:dt="string">E-Prime Primary Realtime Clock</Description><StartTime><Timestamp dt:dt="int">0</Timestamp><DateUtc dt:dt="string">2014-11-12T17:56:26Z</DateUtc></StartTime><FrequencyChanges><FrequencyChange><Frequency dt:dt="r8">2327520000</Frequency><Timestamp dt:dt="r8">315895328378</Timestamp><Current dt:dt="r8">0</Current><DateUtc dt:dt="string">2014-11-12T17:56:26Z</DateUtc></FrequencyChange></FrequencyChanges></Clock>\n,v4_BCL_f0_g-8-1,60.001,1.0.0.227,1,-1471148702,2.0.10.242,2.0.10.242,11-12-2014,11/12/2014 5:56:26 PM,12:56:26,2.0.10.147,33,,,3,1,15,,,,,,,2,,,b,,0.248,,,7.86,,,30.24,,,,,,ExposureProc,,,,vowel 1,vowel 2,,,,Block1,b2_f0_7_86_f2_30_24_dur_0_248_num_340.wav,,,,
v4_BCL_f0_g,8,1,<?xml version="1.0"?>\n<Clock xmlns:dt="urn:schemas-microsoft-com:datatypes"><Description dt:dt="string">E-Prime Primary Realtime Clock</Description><StartTime><Timestamp dt:dt="int">0</Timestamp><DateUtc dt:dt="string">2014-11-12T17:56:26Z</DateUtc></StartTime><FrequencyChanges><FrequencyChange><Frequency dt:dt="r8">2327520000</Frequency><Timestamp dt:dt="r8">315895328378</Timestamp><Current dt:dt="r8">0</Current><DateUtc dt:dt="string">2014-11-12T17:56:26Z</DateUtc></FrequencyChange></FrequencyChanges></Clock>\n,v4_BCL_f0_g-8-1,60.001,1.0.0.227,1,-1471148702,2.0.10.242,2.0.10.242,11-12-2014,11/12/2014 5:56:26 PM,12:56:26,2.0.10.147,34,,,31,1,16,,,,,,,2,,,g,,0.254,,,9.12,,,29,,,,,,ExposureProc,,,,vowel 1,vowel 2,,,,Block1,g2_f0_9_12_f2_29_00_dur_0_254_num_519.wav,,,,
v4_BCL_f0_g,8,1,<?xml version="1.0"?>\n<Clock xmlns:dt="urn:schemas-microsoft-com:datatypes"><Description dt:dt="string">E-Prime Primary Realtime Clock</Description><StartTime><Timestamp dt:dt="int">0</Timestamp><DateUtc dt:dt="string">2014-11-12T17:56:26Z</DateUtc></StartTime><FrequencyChanges><FrequencyChange><Frequency dt:dt="r8">2327520000</Frequency><Timestamp dt:dt="r8">315895328378</Timestamp><Current dt:dt="r8">0</Current><DateUtc dt:dt="string">2014-11-12T17:56:26Z</DateUtc></FrequencyChange></FrequencyChanges></Clock>\n,v4_BCL_f0_g-8-1,60.001,1.0.0.227,1,-1471148702,2.0.10.242,2.0.10.242,11-12-2014,11/12/2014 5:56:26 PM,12:56:26,2.0.10.147,35,,,8,1,17,,,,,,,1,,,b,,0.249,,,10.41,,,30.13,,,,,,ExposureProc,,,,vowel 1,vowel 2,,,,Block1,b1_f0_10_41_f2_30_13_dur_0_249_num_93.wav,,,,
v4_BCL_f0_g,8,1,<?xml version="1.0"?>\n<Clock xmlns:dt="urn:schemas-microsoft-com:datatypes"><Description dt:dt="string">E-Prime Primary Realtime Clock</Description><StartTime><Timestamp dt:dt="int">0</Timestamp><DateUtc dt:dt="string">2014-11-12T17:56:26Z</DateUtc></StartTime><FrequencyChanges><FrequencyChange><Frequency dt:dt="r8">2327520000</Frequency><Timestamp dt:dt="r8">315895328378</Timestamp><Current dt:dt="r8">0</Current><DateUtc dt:dt="string">2014-11-12T17:56:26Z</DateUtc></FrequencyChange></FrequencyChanges></Clock>\n,v4_BCL_f0_g-8-1,60.001,1.0.0.227,1,-1471148702,2.0.10.242,2.0.10.242,11-12-2014,11/12/2014 5:56:26 PM,12:56:26,2.0.10.147,36,,,13,1,18,,,,,,,2,,,d,,0.249,,,8.14,,,29.41,,,,,,ExposureProc,,,,vowel 1,vowel 2,,,,Block1,d2_f0_8_14_f2_29_41_dur_0_249_num_419.wav,,,,
v4_BCL_f0_g,8,1,<?xml version="1.0"?>\n<Clock xmlns:dt="urn:schemas-microsoft-com:datatypes"><Description dt:dt="string">E-Prime Primary Realtime Clock</Description><StartTime><Timestamp dt:dt="int">0</Timestamp><DateUtc dt:dt="string">2014-11-12T17:56:26Z</DateUtc></StartTime><FrequencyChanges><FrequencyChange><Frequency dt:dt="r8">2327520000</Frequency><Timestamp dt:dt="r8">315895328378</Timestamp><Current dt:dt="r8">0</Current><DateUtc dt:dt="string">2014-11-12T17:56:26Z</DateUtc></FrequencyChange></FrequencyChanges></Clock>\n,v4_BCL_f0_g-8-1,60.001,1.0.0.227,1,-1471148702,2.0.10.242,2.0.10.242,11-12-2014,11/12/2014 5:56:26 PM,12:56:26,2.0.10.147,37,,,28,1,19,,,,,,,1,,,g,,0.25,,,9.91,,,30.61,,,,,,ExposureProc,,,,vowel 1,vowel 2,,,,Block1,g1_f0_9_91_f2_30_61_dur_0_250_num_275.wav,,,,
v4_BCL_f0_g,8,1,<?xml version="1.0"?>\n<Clock xmlns:dt="urn:schemas-microsoft-com:datatypes"><Description dt:dt="string">E-Prime Primary Realtime Clock</Description><StartTime><Timestamp dt:dt="int">0</Timestamp><DateUtc dt:dt="string">2014-11-12T17:56:26Z</DateUtc></StartTime><FrequencyChanges><FrequencyChange><Frequency dt:dt="r8">2327520000</Frequency><Timestamp dt:dt="r8">315895328378</Timestamp><Current dt:dt="r8">0</Current><DateUtc dt:dt="string">2014-11-12T17:56:26Z</DateUtc></FrequencyChange></FrequencyChanges></Clock>\n,v4_BCL_f0_g-8-1,60.001,1.0.0.227,1,-1471148702,2.0.10.242,2.0.10.242,11-12-2014,11/12/2014 5:56:26 PM,12:56:26,2.0.10.147,38,,,20,1,20,,,,,,,1,,,d,,0.248,,,9.12,,,30.18,,,,,,ExposureProc,,,,vowel 1,vowel 2,,,,Block1,d1_f0_9_12_f2_30_18_dur_0_248_num_140.wav,,,,
v4_BCL_f0_g,8,1,<?xml version="1.0"?>\n<Clock xmlns:dt="urn:schemas-microsoft-com:datatypes"><Description dt:dt="string">E-Prime Primary Realtime Clock</Description><StartTime><Timestamp dt:dt="int">0</Timestamp><DateUtc dt:dt="string">2014-11-12T17:56:26Z</DateUtc></StartTime><FrequencyChanges><FrequencyChange><Frequency dt:dt="r8">2327520000</Frequency><Timestamp dt:dt="r8">315895328378</Timestamp><Current dt:dt="r8">0</Current><DateUtc dt:dt="string">2014-11-12T17:56:26Z</DateUtc></FrequencyChange></FrequencyChanges></Clock>\n,v4_BCL_f0_g-8-1,60.001,1.0.0.227,1,-1471148702,2.0.10.242,2.0.10.242,11-12-2014,11/12/2014 5:56:26 PM,12:56:26,2.0.10.147,39,,,11,1,21,,,,,,,1,,,b,,0.247,,,9.95,,,29.67,,,,,,ExposureProc,,,,vowel 1,vowel 2,,,,Block1,b1_f0_9_95_f2_29_67_dur_0_247_num_29.wav,,,,
v4_BCL_f0_g,8,1,<?xml version="1.0"?>\n<Clock xmlns:dt="urn:schemas-microsoft-com:datatypes"><Description dt:dt="string">E-Prime Primary Realtime Clock</Description><StartTime><Timestamp dt:dt="int">0</Timestamp><DateUtc dt:dt="string">2014-11-12T17:56:26Z</DateUtc></StartTime><FrequencyChanges><FrequencyChange><Frequency dt:dt="r8">2327520000</Frequency><Timestamp dt:dt="r8">315895328378</Timestamp><Current dt:dt="r8">0</Current><DateUtc dt:dt="string">2014-11-12T17:56:26Z</DateUtc></FrequencyChange></FrequencyChanges></Clock>\n,v4_BCL_f0_g-8-1,60.001,1.0.0.227,1,-1471148702,2.0.10.242,2.0.10.242,11-12-2014,11/12/2014 5:56:26 PM,12:56:26,2.0.10.147,40,,,12,1,22,,,,,,,2,,,b,,0.252,,,8.69,,,29.39,,,,,,ExposureProc,,,,vowel 1,vowel 2,,,,Block1,b2_f0_8_69_f2_29_39_dur_0_252_num_319.wav,,,,
v4_BCL_f0_g,8,1,<?xml version="1.0"?>\n<Clock xmlns:dt="urn:schemas-microsoft-com:datatypes"><Description dt:dt="string">E-Prime Primary Realtime Clock</Description><StartTime><Timestamp dt:dt="int">0</Timestamp><DateUtc dt:dt="string">2014-11-12T17:56:26Z</DateUtc></StartTime><FrequencyChanges><FrequencyChange><Frequency dt:dt="r8">2327520000</Frequency><Timestamp dt:dt="r8">315895328378</Timestamp><Current dt:dt="r8">0</Current><DateUtc dt:dt="string">2014-11-12T17:56:26Z</DateUtc></FrequencyChange></FrequencyChanges></Clock>\n,v4_BCL_f0_g-8-1,60.001,1.0.0.227,1,-1471148702,2.0.10.242,2.0.10.242,11-12-2014,11/12/2014 5:56:26 PM,12:56:26,2.0.10.147,41,,,14,1,23,,,,,,,2,,,d,,0.248,,,10.11,,,28.03,,,,,,ExposureProc,,,,vowel 1,vowel 2,,,,Block1,d2_f0_10_11_f2_28_03_dur_0_248_num_460.wav,,,,
v4_BCL_f0_g,8,1,<?xml version="1.0"?>\n<Clock xmlns:dt="urn:schemas-microsoft-com:datatypes"><Description dt:dt="string">E-Prime Primary Realtime Clock</Description><StartTime><Timestamp dt:dt="int">0</Timestamp><DateUtc dt:dt="string">2014-11-12T17:56:26Z</DateUtc></StartTime><FrequencyChanges><FrequencyChange><Frequency dt:dt="r8">2327520000</Frequency><Timestamp dt:dt="r8">315895328378</Timestamp><Current dt:dt="r8">0</Current><DateUtc dt:dt="string">2014-11-12T17:56:26Z</DateUtc></FrequencyChange></FrequencyChanges></Clock>\n,v4_BCL_f0_g-8-1,60.001,1.0.0.227,1,-1471148702,2.0.10.242,2.0.10.242,11-12-2014,11/12/2014 5:56:26 PM,12:56:26,2.0.10.147,42,,,2,1,24,,,,,,,2,,,b,,0.253,,,8.55,,,29.96,,,,,,ExposureProc,,,,vowel 1,vowel 2,,,,Block1,b2_f0_8_55_f2_29_96_dur_0_253_num_313.wav,,,,
v4_BCL_f0_g,8,1,<?xml version="1.0"?>\n<Clock xmlns:dt="urn:schemas-microsoft-com:datatypes"><Description dt:dt="string">E-Prime Primary Realtime Clock</Description><StartTime><Timestamp dt:dt="int">0</Timestamp><DateUtc dt:dt="string">2014-11-12T17:56:26Z</DateUtc></StartTime><FrequencyChanges><FrequencyChange><Frequency dt:dt="r8">2327520000</Frequency><Timestamp dt:dt="r8">315895328378</Timestamp><Current dt:dt="r8">0</Current><DateUtc dt:dt="string">2014-11-12T17:56:26Z</DateUtc></FrequencyChange></FrequencyChanges></Clock>\n,v4_BCL_f0_g-8-1,60.001,1.0.0.227,1,-1471148702,2.0.10.242,2.0.10.242,11-12-2014,11/12/2014 5:56:26 PM,12:56:26,2.0.10.147,43,,,36,1,25,,,,,,,2,,,g,,0.248,,,8.3,,,29.96,,,,,,ExposureProc,,,,vowel 1,vowel 2,,,,Block1,g2_f0_8_30_f2_29_96_dur_0_248_num_533.wav,,,,
v4_BCL_f0_g,8,1,<?xml version="1.0"?>\n<Clock xmlns:dt="urn:schemas-microsoft-com:datatypes"><Description dt:dt="string">E-Prime Primary Realtime Clock</Description><StartTime><Timestamp dt:dt="int">0</Timestamp><DateUtc dt:dt="string">2014-11-12T17:56:26Z</DateUtc></StartTime><FrequencyChanges><FrequencyChange><Frequency dt:dt="r8">2327520000</Frequency><Timestamp dt:dt="r8">315895328378</Timestamp><Current dt:dt="r8">0</Current><DateUtc dt:dt="string">2014-11-12T17:56:26Z</DateUtc></FrequencyChange></FrequencyChanges></Clock>\n,v4_BCL_f0_g-8-1,60.001,1.0.0.227,1,-1471148702,2.0.10.242,2.0.10.242,11-12-2014,11/12/2014 5:56:26 PM,12:56:26,2.0.10.147,44,,,16,1,26,,,,,,,2,,,d,,0.255,,,7.95,,,29.94,,,,,,ExposureProc,,,,vowel 1,vowel 2,,,,Block1,d2_f0_7_95_f2_29_94_dur_0_255_num_429.wav,,,,
v4_BCL_f0_g,8,1,<?xml version="1.0"?>\n<Clock xmlns:dt="urn:schemas-microsoft-com:datatypes"><Description dt:dt="string">E-Prime Primary Realtime Clock</Description><StartTime><Timestamp dt:dt="int">0</Timestamp><DateUtc dt:dt="string">2014-11-12T17:56:26Z</DateUtc></StartTime><FrequencyChanges><FrequencyChange><Frequency dt:dt="r8">2327520000</Frequency><Timestamp dt:dt="r8">315895328378</Timestamp><Current dt:dt="r8">0</Current><DateUtc dt:dt="string">2014-11-12T17:56:26Z</DateUtc></FrequencyChange></FrequencyChanges></Clock>\n,v4_BCL_f0_g-8-1,60.001,1.0.0.227,1,-1471148702,2.0.10.242,2.0.10.242,11-12-2014,11/12/2014 5:56:26 PM,12:56:26,2.0.10.147,45,,,17,1,27,,,,,,,2,,,d,,0.247,,,8.04,,,29.55,,,,,,ExposureProc,,,,vowel 1,vowel 2,,,,Block1,d2_f0_8_04_f2_29_55_dur_0_247_num_468.wav,,,,
v4_BCL_f0_g,8,1,<?xml version="1.0"?>\n<Clock xmlns:dt="urn:schemas-microsoft-com:datatypes"><Description dt:dt="string">E-Prime Primary Realtime Clock</Description><StartTime><Timestamp dt:dt="int">0</Timestamp><DateUtc dt:dt="string">2014-11-12T17:56:26Z</DateUtc></StartTime><FrequencyChanges><FrequencyChange><Frequency dt:dt="r8">2327520000</Frequency><Timestamp dt:dt="r8">315895328378</Timestamp><Current dt:dt="r8">0</Current><DateUtc dt:dt="string">2014-11-12T17:56:26Z</DateUtc></FrequencyChange></FrequencyChanges></Clock>\n,v4_BCL_f0_g-8-1,60.001,1.0.0.227,1,-1471148702,2.0.10.242,2.0.10.242,11-12-2014,11/12/2014 5:56:26 PM,12:56:26,2.0.10.147,46,,,7,1,28,,,,,,,1,,,b,,0.251,,,10.38,,,30.6,,,,,,ExposureProc,,,,vowel 1,vowel 2,,,,Block1,b1_f0_10_38_f2_30_60_dur_0_251_num_4.wav,,,,
v4_BCL_f0_g,8,1,<?xml version="1.0"?>\n<Clock xmlns:dt="urn:schemas-microsoft-com:datatypes"><Description dt:dt="string">E-Prime Primary Realtime Clock</Description><StartTime><Timestamp dt:dt="int">0</Timestamp><DateUtc dt:dt="string">2014-11-12T17:56:26Z</DateUtc></StartTime><FrequencyChanges><FrequencyChange><Frequency dt:dt="r8">2327520000</Frequency><Timestamp dt:dt="r8">315895328378</Timestamp><Current dt:dt="r8">0</Current><DateUtc dt:dt="string">2014-11-12T17:56:26Z</DateUtc></FrequencyChange></FrequencyChanges></Clock>\n,v4_BCL_f0_g-8-1,60.001,1.0.0.227,1,-1471148702,2.0.10.242,2.0.10.242,11-12-2014,11/12/2014 5:56:26 PM,12:56:26,2.0.10.147,47,,,22,1,29,,,,,,,1,,,d,,0.247,,,10.5,,,29.75,,,,,,ExposureProc,,,,vowel 1,vowel 2,,,,Block1,d1_f0_10_50_f2_29_75_dur_0_247_num_129.wav,,,,
v4_BCL_f0_g,8,1,<?xml version="1.0"?>\n<Clock xmlns:dt="urn:schemas-microsoft-com:datatypes"><Description dt:dt="string">E-Prime Primary Realtime Clock</Description><StartTime><Timestamp dt:dt="int">0</Timestamp><DateUtc dt:dt="string">2014-11-12T17:56:26Z</DateUtc></StartTime><FrequencyChanges><FrequencyChange><Frequency dt:dt="r8">2327520000</Frequency><Timestamp dt:dt="r8">315895328378</Timestamp><Current dt:dt="r8">0</Current><DateUtc dt:dt="string">2014-11-12T17:56:26Z</DateUtc></FrequencyChange></FrequencyChanges></Clock>\n,v4_BCL_f0_g-8-1,60.001,1.0.0.227,1,-1471148702,2.0.10.242,2.0.10.242,11-12-2014,11/12/2014 5:56:26 PM,12:56:26,2.0.10.147,48,,,1,1,30,,,,,,,1,,,b,,0.244,,,10.28,,,30.79,,,,,,ExposureProc,,,,Vowel 1,Vowel 2,,,,Block1,b1_f0_10_28_f2_30_79_dur_0_244_num_6.wav,,,,
v4_BCL_f0_g,8,1,<?xml version="1.0"?>\n<Clock xmlns:dt="urn:schemas-microsoft-com:datatypes"><Description dt:dt="string">E-Prime Primary Realtime Clock</Description><StartTime><Timestamp dt:dt="int">0</Timestamp><DateUtc dt:dt="string">2014-11-12T17:56:26Z</DateUtc></StartTime><FrequencyChanges><FrequencyChange><Frequency dt:dt="r8">2327520000</Frequency><Timestamp dt:dt="r8">315895328378</Timestamp><Current dt:dt="r8">0</Current><DateUtc dt:dt="string">2014-11-12T17:56:26Z</DateUtc></FrequencyChange></FrequencyChanges></Clock>\n,v4_BCL_f0_g-8-1,60.001,1.0.0.227,1,-1471148702,2.0.10.242,2.0.10.242,11-12-2014,11/12/2014 5:56:26 PM,12:56:26,2.0.10.147,49,,,30,1,31,,,,,,,1,,,g,,0.251,,,9.11,,,31.59,,,,,,ExposureProc,,,,vowel 1,vowel 2,,,,Block1,g1_f0_9_11_f2_31_59_dur_0_251_num_268.wav,,,,
v4_BCL_f0_g,8,1,<?xml version="1.0"?>\n<Clock xmlns:dt="urn:schemas-microsoft-com:datatypes"><Description dt:dt="string">E-Prime Primary Realtime Clock</Description><StartTime><Timestamp dt:dt="int">0</Timestamp><DateUtc dt:dt="string">2014-11-12T17:56:26Z</DateUtc></StartTime><FrequencyChanges><FrequencyChange><Frequency dt:dt="r8">2327520000</Frequency><Timestamp dt:dt="r8">315895328378</Timestamp><Current dt:dt="r8">0</Current><DateUtc dt:dt="string">2014-11-12T17:56:26Z</DateUtc></FrequencyChange></FrequencyChanges></Clock>\n,v4_BCL_f0_g-8-1,60.001,1.0.0.227,1,-1471148702,2.0.10.242,2.0.10.242,11-12-2014,11/12/2014 5:56:26 PM,12:56:26,2.0.10.147,50,,,26,1,32,,,,,,,1,,,g,,0.248,,,9.5,,,30.89,,,,,,ExposureProc,,,,vowel 1,vowel 2,,,,Block1,g1_f0_9_50_f2_30_89_dur_0_248_num_223.wav,,,,
v4_BCL_f0_g,8,1,<?xml version="1.0"?>\n<Clock xmlns:dt="urn:schemas-microsoft-com:datatypes"><Description dt:dt="string">E-Prime Primary Realtime Clock</Description><StartTime><Timestamp dt:dt="int">0</Timestamp><DateUtc dt:dt="string">2014-11-12T17:56:26Z</DateUtc></StartTime><FrequencyChanges><FrequencyChange><Frequency dt:dt="r8">2327520000</Frequency><Timestamp dt:dt="r8">315895328378</Timestamp><Current dt:dt="r8">0</Current><DateUtc dt:dt="string">2014-11-12T17:56:26Z</DateUtc></FrequencyChange></FrequencyChanges></Clock>\n,v4_BCL_f0_g-8-1,60.001,1.0.0.227,1,-1471148702,2.0.10.242,2.0.10.242,11-12-2014,11/12/2014 5:56:26 PM,12:56:26,2.0.10.147,51,,,9,1,33,,,,,,,1,,,b,,0.246,,,10.11,,,30.08,,,,,,ExposureProc,,,,vowel 1,vowel 2,,,,Block1,b1_f0_10_11_f2_30_08_dur_0_246_num_47.wav,,,,
v4_BCL_f0_g,8,1,<?xml version="1.0"?>\n<Clock xmlns:dt="urn:schemas-microsoft-com:datatypes"><Description dt:dt="string">E-Prime Primary Realtime Clock</Description><StartTime><Timestamp dt:dt="int">0</Timestamp><DateUtc dt:dt="string">2014-11-12T17:56:26Z</DateUtc></StartTime><FrequencyChanges><FrequencyChange><Frequency dt:dt="r8">2327520000</Frequency><Timestamp dt:dt="r8">315895328378</Timestamp><Current dt:dt="r8">0</Current><DateUtc dt:dt="string">2014-11-12T17:56:26Z</DateUtc></FrequencyChange></FrequencyChanges></Clock>\n,v4_BCL_f0_g-8-1,60.001,1.0.0.227,1,-1471148702,2.0.10.242,2.0.10.242,11-12-2014,11/12/2014 5:56:26 PM,12:56:26,2.0.10.147,52,,,27,1,34,,,,,,,2,,,g,,0.248,,,9.44,,,29.82,,,,,,ExposureProc,,,,vowel 1,vowel 2,,,,Block1,g2_f0_9_44_f2_29_82_dur_0_248_num_589.wav,,,,
v4_BCL_f0_g,8,1,<?xml version="1.0"?>\n<Clock xmlns:dt="urn:schemas-microsoft-com:datatypes"><Description dt:dt="string">E-Prime Primary Realtime Clock</Description><StartTime><Timestamp dt:dt="int">0</Timestamp><DateUtc dt:dt="string">2014-11-12T17:56:26Z</DateUtc></StartTime><FrequencyChanges><FrequencyChange><Frequency dt:dt="r8">2327520000</Frequency><Timestamp dt:dt="r8">315895328378</Timestamp><Current dt:dt="r8">0</Current><DateUtc dt:dt="string">2014-11-12T17:56:26Z</DateUtc></FrequencyChange></FrequencyChanges></Clock>\n,v4_BCL_f0_g-8-1,60.001,1.0.0.227,1,-1471148702,2.0.10.242,2.0.10.242,11-12-2014,11/12/2014 5:56:26 PM,12:56:26,2.0.10.147,53,,,33,1,35,,,,,,,2,,,g,,0.248,,,8.49,,,29.93,,,,,,ExposureProc,,,,vowel 1,vowel 2,,,,Block1,g2_f0_8_49_f2_29_93_dur_0_248_num_575.wav,,,,
v4_BCL_f0_g,8,1,<?xml version="1.0"?>\n<Clock xmlns:dt="urn:schemas-microsoft-com:datatypes"><Description dt:dt="string">E-Prime Primary Realtime Clock</Description><StartTime><Timestamp dt:dt="int">0</Timestamp><DateUtc dt:dt="string">2014-11-12T17:56:26Z</DateUtc></StartTime><FrequencyChanges><FrequencyChange><Frequency dt:dt="r8">2327520000</Frequency><Timestamp dt:dt="r8">315895328378</Timestamp><Current dt:dt="r8">0</Current><DateUtc dt:dt="string">2014-11-12T17:56:26Z</DateUtc></FrequencyChange></FrequencyChanges></Clock>\n,v4_BCL_f0_g-8-1,60.001,1.0.0.227,1,-1471148702,2.0.10.242,2.0.10.242,11-12-2014,11/12/2014 5:56:26 PM,12:56:26,2.0.10.147,54,,,5,1,36,,,,,,,2,,,b,,0.252,,,7.55,,,30.38,,,,,,ExposureProc,,,,vowel 1,vowel 2,,,,Block1,b2_f0_7_55_f2_30_38_dur_0_252_num_336.wav,,,,
v4_BCL_f0_g,8,1,<?xml version="1.0"?>\n<Clock xmlns:dt="urn:schemas-microsoft-com:datatypes"><Description dt:dt="string">E-Prime Primary Realtime Clock</Description><StartTime><Timestamp dt:dt="int">0</Timestamp><DateUtc dt:dt="string">2014-11-12T17:56:26Z</DateUtc></StartTime><FrequencyChanges><FrequencyChange><Frequency dt:dt="r8">2327520000</Frequency><Timestamp dt:dt="r8">315895328378</Timestamp><Current dt:dt="r8">0</Current><DateUtc dt:dt="string">2014-11-12T17:56:26Z</DateUtc></FrequencyChange></FrequencyChanges></Clock>\n,v4_BCL_f0_g-8-1,60.001,1.0.0.227,1,-1471148702,2.0.10.242,2.0.10.242,11-12-2014,11/12/2014 5:56:26 PM,12:56:26,2.0.10.147,55,,,,,,1,1,1,,,,2,,,g,,0.244,,,8.48,,,29.52,,,,,,TrialProc1,,,,vowel 1,vowel 2,1,631,258107,Block2,g2_f0_8_48_f2_29_52_dur_0_244_num_502.wav,,,,
v4_BCL_f0_g,8,1,<?xml version="1.0"?>\n<Clock xmlns:dt="urn:schemas-microsoft-com:datatypes"><Description dt:dt="string">E-Prime Primary Realtime Clock</Description><StartTime><Timestamp dt:dt="int">0</Timestamp><DateUtc dt:dt="string">2014-11-12T17:56:26Z</DateUtc></StartTime><FrequencyChanges><FrequencyChange><Frequency dt:dt="r8">2327520000</Frequency><Timestamp dt:dt="r8">315895328378</Timestamp><Current dt:dt="r8">0</Current><DateUtc dt:dt="string">2014-11-12T17:56:26Z</DateUtc></FrequencyChange></FrequencyChanges></Clock>\n,v4_BCL_f0_g-8-1,60.001,1.0.0.227,1,-1471148702,2.0.10.242,2.0.10.242,11-12-2014,11/12/2014 5:56:26 PM,12:56:26,2.0.10.147,56,,,,,,2,1,2,,,,1,,,g,,0.253,,,9.38,,,30.53,,,,,,TrialProc1,,,,vowel 1,vowel 2,2,290,259200,Block2,g1_f0_9_38_f2_30_53_dur_0_253_num_234.wav,,,,
v4_BCL_f0_g,8,1,<?xml version="1.0"?>\n<Clock xmlns:dt="urn:schemas-microsoft-com:datatypes"><Description dt:dt="string">E-Prime Primary Realtime Clock</Description><StartTime><Timestamp dt:dt="int">0</Timestamp><DateUtc dt:dt="string">2014-11-12T17:56:26Z</DateUtc></StartTime><FrequencyChanges><FrequencyChange><Frequency dt:dt="r8">2327520000</Frequency><Timestamp dt:dt="r8">315895328378</Timestamp><Current dt:dt="r8">0</Current><DateUtc dt:dt="string">2014-11-12T17:56:26Z</DateUtc></FrequencyChange></FrequencyChanges></Clock>\n,v4_BCL_f0_g-8-1,60.001,1.0.0.227,1,-1471148702,2.0.10.242,2.0.10.242,11-12-2014,11/12/2014 5:56:26 PM,12:56:26,2.0.10.147,57,,,,,,3,1,3,,,,2,,,g,,0.25,,,8.74,,,29.93,,,,,,TrialProc1,,,,vowel 1,vowel 2,1,314,260324,Block2,g2_f0_8_74_f2_29_93_dur_0_250_num_503.wav,,,,
v4_BCL_f0_g,8,1,<?xml version="1.0"?>\n<Clock xmlns:dt="urn:schemas-microsoft-com:datatypes"><Description dt:dt="string">E-Prime Primary Realtime Clock</Description><StartTime><Timestamp dt:dt="int">0</Timestamp><DateUtc dt:dt="string">2014-11-12T17:56:26Z</DateUtc></StartTime><FrequencyChanges><FrequencyChange><Frequency dt:dt="r8">2327520000</Frequency><Timestamp dt:dt="r8">315895328378</Timestamp><Current dt:dt="r8">0</Current><DateUtc dt:dt="string">2014-11-12T17:56:26Z</DateUtc></FrequencyChange></FrequencyChanges></Clock>\n,v4_BCL_f0_g-8-1,60.001,1.0.0.227,1,-1471148702,2.0.10.242,2.0.10.242,11-12-2014,11/12/2014 5:56:26 PM,12:56:26,2.0.10.147,58,,,,,,4,1,4,,,,1,,,g,,0.248,,,9.93,,,30.32,,,,,,TrialProc1,,,,vowel 1,vowel 2,2,99,261242,Block2,g1_f0_9_93_f2_30_32_dur_0_248_num_212.wav,,,,
v4_BCL_f0_g,8,1,<?xml version="1.0"?>\n<Clock xmlns:dt="urn:schemas-microsoft-com:datatypes"><Description dt:dt="string">E-Prime Primary Realtime Clock</Description><StartTime><Timestamp dt:dt="int">0</Timestamp><DateUtc dt:dt="string">2014-11-12T17:56:26Z</DateUtc></StartTime><FrequencyChanges><FrequencyChange><Frequency dt:dt="r8">2327520000</Frequency><Timestamp dt:dt="r8">315895328378</Timestamp><Current dt:dt="r8">0</Current><DateUtc dt:dt="string">2014-11-12T17:56:26Z</DateUtc></FrequencyChange></FrequencyChanges></Clock>\n,v4_BCL_f0_g-8-1,60.001,1.0.0.227,1,-1471148702,2.0.10.242,2.0.10.242,11-12-2014,11/12/2014 5:56:26 PM,12:56:26,2.0.10.147,59,,,,,,5,1,5,,,,2,,,g,,0.248,,,8.93,,,29.29,,,,,,TrialProc1,,,,vowel 1,vowel 2,1,263,262306,Block2,g2_f0_8_93_f2_29_29_dur_0_248_num_592.wav,,,,
v4_BCL_f0_g,8,1,<?xml version="1.0"?>\n<Clock xmlns:dt="urn:schemas-microsoft-com:datatypes"><Description dt:dt="string">E-Prime Primary Realtime Clock</Description><StartTime><Timestamp dt:dt="int">0</Timestamp><DateUtc dt:dt="string">2014-11-12T17:56:26Z</DateUtc></StartTime><FrequencyChanges><FrequencyChange><Frequency dt:dt="r8">2327520000</Frequency><Timestamp dt:dt="r8">315895328378</Timestamp><Current dt:dt="r8">0</Current><DateUtc dt:dt="string">2014-11-12T17:56:26Z</DateUtc></FrequencyChange></FrequencyChanges></Clock>\n,v4_BCL_f0_g-8-1,60.001,1.0.0.227,1,-1471148702,2.0.10.242,2.0.10.242,11-12-2014,11/12/2014 5:56:26 PM,12:56:26,2.0.10.147,60,,,,,,6,1,6,,,,1,,,g,,0.246,,,10.02,,,30.69,,,,,,TrialProc1,,,,vowel 1,vowel 2,2,13,263139,Block2,g1_f0_10_02_f2_30_69_dur_0_246_num_260.wav,,,,
v4_BCL_f0_g,8,1,<?xml version="1.0"?>\n<Clock xmlns:dt="urn:schemas-microsoft-com:datatypes"><Description dt:dt="string">E-Prime Primary Realtime Clock</Description><StartTime><Timestamp dt:dt="int">0</Timestamp><DateUtc dt:dt="string">2014-11-12T17:56:26Z</DateUtc></StartTime><FrequencyChanges><FrequencyChange><Frequency dt:dt="r8">2327520000</Frequency><Timestamp dt:dt="r8">315895328378</Timestamp><Current dt:dt="r8">0</Current><DateUtc dt:dt="string">2014-11-12T17:56:26Z</DateUtc></FrequencyChange></FrequencyChanges></Clock>\n,v4_BCL_f0_g-8-1,60.001,1.0.0.227,1,-1471148702,2.0.10.242,2.0.10.242,11-12-2014,11/12/2014 5:56:26 PM,12:56:26,2.0.10.147,61,,,,,,7,1,7,,,,2,,,g,,0.249,,,8.1,,,29.65,,,,,,TrialProc1,,,,vowel 1,vowel 2,1,280,264240,Block2,g2_f0_8_10_f2_29_65_dur_0_249_num_557.wav,,,,
v4_BCL_f0_g,8,1,<?xml version="1.0"?>\n<Clock xmlns:dt="urn:schemas-microsoft-com:datatypes"><Description dt:dt="string">E-Prime Primary Realtime Clock</Description><StartTime><Timestamp dt:dt="int">0</Timestamp><DateUtc dt:dt="string">2014-11-12T17:56:26Z</DateUtc></StartTime><FrequencyChanges><FrequencyChange><Frequency dt:dt="r8">2327520000</Frequency><Timestamp dt:dt="r8">315895328378</Timestamp><Current dt:dt="r8">0</Current><DateUtc dt:dt="string">2014-11-12T17:56:26Z</DateUtc></FrequencyChange></FrequencyChanges></Clock>\n,v4_BCL_f0_g-8-1,60.001,1.0.0.227,1,-1471148702,2.0.10.242,2.0.10.242,11-12-2014,11/12/2014 5:56:26 PM,12:56:26,2.0.10.147,62,,,,,,8,1,8,,,,1,,,g,,0.245,,,10.18,,,30.59,,,,,,TrialProc1,,,,vowel 1,vowel 2,2,97,265157,Block2,g1_f0_10_18_f2_30_59_dur_0_245_num_256.wav,,,,
v4_BCL_f0_g,8,1,<?xml version="1.0"?>\n<Clock xmlns:dt="urn:schemas-microsoft-com:datatypes"><Description dt:dt="string">E-Prime Primary Realtime Clock</Description><StartTime><Timestamp dt:dt="int">0</Timestamp><DateUtc dt:dt="string">2014-11-12T17:56:26Z</DateUtc></StartTime><FrequencyChanges><FrequencyChange><Frequency dt:dt="r8">2327520000</Frequency><Timestamp dt:dt="r8">315895328378</Timestamp><Current dt:dt="r8">0</Current><DateUtc dt:dt="string">2014-11-12T17:56:26Z</DateUtc></FrequencyChange></FrequencyChanges></Clock>\n,v4_BCL_f0_g-8-1,60.001,1.0.0.227,1,-1471148702,2.0.10.242,2.0.10.242,11-12-2014,11/12/2014 5:56:26 PM,12:56:26,2.0.10.147,63,,,,,,9,1,9,,,,1,,,g,,0.25,,,8.82,,,31.82,,,,,,TrialProc1,,,,vowel 1,vowel 2,1,123,266099,Block2,g1_f0_8_82_f2_31_82_dur_0_250_num_269.wav,,,,
v4_BCL_f0_g,8,1,<?xml version="1.0"?>\n<Clock xmlns:dt="urn:schemas-microsoft-com:datatypes"><Description dt:dt="string">E-Prime Primary Realtime Clock</Description><StartTime><Timestamp dt:dt="int">0</Timestamp><DateUtc dt:dt="string">2014-11-12T17:56:26Z</DateUtc></StartTime><FrequencyChanges><FrequencyChange><Frequency dt:dt="r8">2327520000</Frequency><Timestamp dt:dt="r8">315895328378</Timestamp><Current dt:dt="r8">0</Current><DateUtc dt:dt="string">2014-11-12T17:56:26Z</DateUtc></FrequencyChange></FrequencyChanges></Clock>\n,v4_BCL_f0_g-8-1,60.001,1.0.0.227,1,-1471148702,2.0.10.242,2.0.10.242,11-12-2014,11/12/2014 5:56:26 PM,12:56:26,2.0.10.147,64,,,,,,10,1,10,,,,2,,,g,,0.253,,,8.21,,,30.46,,,,,,TrialProc1,,,,vowel 1,vowel 2,1,100,267010,Block2,g2_f0_8_21_f2_30_46_dur_0_253_num_570.wav,,,,
v4_BCL_f0_g,8,1,<?xml version="1.0"?>\n<Clock xmlns:dt="urn:schemas-microsoft-com:datatypes"><Description dt:dt="string">E-Prime Primary Realtime Clock</Description><StartTime><Timestamp dt:dt="int">0</Timestamp><DateUtc dt:dt="string">2014-11-12T17:56:26Z</DateUtc></StartTime><FrequencyChanges><FrequencyChange><Frequency dt:dt="r8">2327520000</Frequency><Timestamp dt:dt="r8">315895328378</Timestamp><Current dt:dt="r8">0</Current><DateUtc dt:dt="string">2014-11-12T17:56:26Z</DateUtc></FrequencyChange></FrequencyChanges></Clock>\n,v4_BCL_f0_g-8-1,60.001,1.0.0.227,1,-1471148702,2.0.10.242,2.0.10.242,11-12-2014,11/12/2014 5:56:26 PM,12:56:26,2.0.10.147,65,,,,,,11,1,11,,,,2,,,g,,0.25,,,8.96,,,29.45,,,,,,TrialProc1,,,,vowel 1,vowel 2,2,110,267936,Block2,g2_f0_8_96_f2_29_45_dur_0_250_num_520.wav,,,,
v4_BCL_f0_g,8,1,<?xml version="1.0"?>\n<Clock xmlns:dt="urn:schemas-microsoft-com:datatypes"><Description dt:dt="string">E-Prime Primary Realtime Clock</Description><StartTime><Timestamp dt:dt="int">0</Timestamp><DateUtc dt:dt="string">2014-11-12T17:56:26Z</DateUtc></StartTime><FrequencyChanges><FrequencyChange><Frequency dt:dt="r8">2327520000</Frequency><Timestamp dt:dt="r8">315895328378</Timestamp><Current dt:dt="r8">0</Current><DateUtc dt:dt="string">2014-11-12T17:56:26Z</DateUtc></FrequencyChange></FrequencyChanges></Clock>\n,v4_BCL_f0_g-8-1,60.001,1.0.0.227,1,-1471148702,2.0.10.242,2.0.10.242,11-12-2014,11/12/2014 5:56:26 PM,12:56:26,2.0.10.147,66,,,,,,12,1,12,,,,1,,,g,,0.251,,,10,,,30.58,,,,,,TrialProc1,,,,vowel 1,vowel 2,2,456,269199,Block2,g1_f0_10_00_f2_30_58_dur_0_251_num_284.wav,,,,
v4_BCL_f0_g,8,1,<?xml version="1.0"?>\n<Clock xmlns:dt="urn:schemas-microsoft-com:datatypes"><Description dt:dt="string">E-Prime Primary Realtime Clock</Description><StartTime><Timestamp dt:dt="int">0</Timestamp><DateUtc dt:dt="string">2014-11-12T17:56:26Z</DateUtc></StartTime><FrequencyChanges><FrequencyChange><Frequency dt:dt="r8">2327520000</Frequency><Timestamp dt:dt="r8">315895328378</Timestamp><Current dt:dt="r8">0</Current><DateUtc dt:dt="string">2014-11-12T17:56:26Z</DateUtc></FrequencyChange></FrequencyChanges></Clock>\n,v4_BCL_f0_g-8-1,60.001,1.0.0.227,1,-1471148702,2.0.10.242,2.0.10.242,11-12-2014,11/12/2014 5:56:26 PM,12:56:26,2.0.10.147,67,,,,,,13,1,13,,,,1,,,g,,0.248,,,10.18,,,30.14,,,,,,TrialProc1,,,,vowel 1,vowel 2,2,215,270225,Block2,g1_f0_10_18_f2_30_14_dur_0_248_num_272.wav,,,,
v4_BCL_f0_g,8,1,<?xml version="1.0"?>\n<Clock xmlns:dt="urn:schemas-microsoft-com:datatypes"><Description dt:dt="string">E-Prime Primary Realtime Clock</Description><StartTime><Timestamp dt:dt="int">0</Timestamp><DateUtc dt:dt="string">2014-11-12T17:56:26Z</DateUtc></StartTime><FrequencyChanges><FrequencyChange><Frequency dt:dt="r8">2327520000</Frequency><Timestamp dt:dt="r8">315895328378</Timestamp><Current dt:dt="r8">0</Current><DateUtc dt:dt="string">2014-11-12T17:56:26Z</DateUtc></FrequencyChange></FrequencyChanges></Clock>\n,v4_BCL_f0_g-8-1,60.001,1.0.0.227,1,-1471148702,2.0.10.242,2.0.10.242,11-12-2014,11/12/2014 5:56:26 PM,12:56:26,2.0.10.147,68,,,,,,14,1,14,,,,1,,,g,,0.248,,,10.17,,,30.76,,,,,,TrialProc1,,,,vowel 1,vowel 2,2,154,271197,Block2,g1_f0_10_17_f2_30_76_dur_0_248_num_287.wav,,,,
v4_BCL_f0_g,8,1,<?xml version="1.0"?>\n<Clock xmlns:dt="urn:schemas-microsoft-com:datatypes"><Description dt:dt="string">E-Prime Primary Realtime Clock</Description><StartTime><Timestamp dt:dt="int">0</Timestamp><DateUtc dt:dt="string">2014-11-12T17:56:26Z</DateUtc></StartTime><FrequencyChanges><FrequencyChange><Frequency dt:dt="r8">2327520000</Frequency><Timestamp dt:dt="r8">315895328378</Timestamp><Current dt:dt="r8">0</Current><DateUtc dt:dt="string">2014-11-12T17:56:26Z</DateUtc></FrequencyChange></FrequencyChanges></Clock>\n,v4_BCL_f0_g-8-1,60.001,1.0.0.227,1,-1471148702,2.0.10.242,2.0.10.242,11-12-2014,11/12/2014 5:56:26 PM,12:56:26,2.0.10.147,69,,,,,,15,1,15,,,,2,,,g,,0.25,,,7.36,,,30.5,,,,,,TrialProc1,,,,vowel 1,vowel 2,1,99,272125,Block2,g2_f0_7_36_f2_30_50_dur_0_250_num_540.wav,,,,
v4_BCL_f0_g,8,1,<?xml version="1.0"?>\n<Clock xmlns:dt="urn:schemas-microsoft-com:datatypes"><Description dt:dt="string">E-Prime Primary Realtime Clock</Description><StartTime><Timestamp dt:dt="int">0</Timestamp><DateUtc dt:dt="string">2014-11-12T17:56:26Z</DateUtc></StartTime><FrequencyChanges><FrequencyChange><Frequency dt:dt="r8">2327520000</Frequency><Timestamp dt:dt="r8">315895328378</Timestamp><Current dt:dt="r8">0</Current><DateUtc dt:dt="string">2014-11-12T17:56:26Z</DateUtc></FrequencyChange></FrequencyChanges></Clock>\n,v4_BCL_f0_g-8-1,60.001,1.0.0.227,1,-1471148702,2.0.10.242,2.0.10.242,11-12-2014,11/12/2014 5:56:26 PM,12:56:26,2.0.10.147,70,,,,,,16,1,16,,,,1,,,g,,0.252,,,9.02,,,31.54,,,,,,TrialProc1,,,,vowel 1,vowel 2,2,559,273502,Block2,g1_f0_9_02_f2_31_54_dur_0_252_num_270.wav,,,,
v4_BCL_f0_g,8,1,<?xml version="1.0"?>\n<Clock xmlns:dt="urn:schemas-microsoft-com:datatypes"><Description dt:dt="string">E-Prime Primary Realtime Clock</Description><StartTime><Timestamp dt:dt="int">0</Timestamp><DateUtc dt:dt="string">2014-11-12T17:56:26Z</DateUtc></StartTime><FrequencyChanges><FrequencyChange><Frequency dt:dt="r8">2327520000</Frequency><Timestamp dt:dt="r8">315895328378</Timestamp><Current dt:dt="r8">0</Current><DateUtc dt:dt="string">2014-11-12T17:56:26Z</DateUtc></FrequencyChange></FrequencyChanges></Clock>\n,v4_BCL_f0_g-8-1,60.001,1.0.0.227,1,-1471148702,2.0.10.242,2.0.10.242,11-12-2014,11/12/2014 5:56:26 PM,12:56:26,2.0.10.147,71,,,,,,17,1,17,,,,2,,,g,,0.255,,,7.79,,,30.19,,,,,,TrialProc1,,,,vowel 1,vowel 2,1,161,274470,Block2,g2_f0_7_79_f2_30_19_dur_0_255_num_501.wav,,,,
v4_BCL_f0_g,8,1,<?xml version="1.0"?>\n<Clock xmlns:dt="urn:schemas-microsoft-com:datatypes"><Description dt:dt="string">E-Prime Primary Realtime Clock</Description><StartTime><Timestamp dt:dt="int">0</Timestamp><DateUtc dt:dt="string">2014-11-12T17:56:26Z</DateUtc></StartTime><FrequencyChanges><FrequencyChange><Frequency dt:dt="r8">2327520000</Frequency><Timestamp dt:dt="r8">315895328378</Timestamp><Current dt:dt="r8">0</Current><DateUtc dt:dt="string">2014-11-12T17:56:26Z</DateUtc></FrequencyChange></FrequencyChanges></Clock>\n,v4_BCL_f0_g-8-1,60.001,1.0.0.227,1,-1471148702,2.0.10.242,2.0.10.242,11-12-2014,11/12/2014 5:56:26 PM,12:56:26,2.0.10.147,72,,,,,,18,1,18,,,,2,,,g,,0.253,,,8.09,,,30.48,,,,,,TrialProc1,,,,vowel 1,vowel 2,1,146,275422,Block2,g2_f0_8_09_f2_30_48_dur_0_253_num_552.wav,,,,
v4_BCL_f0_g,8,1,<?xml version="1.0"?>\n<Clock xmlns:dt="urn:schemas-microsoft-com:datatypes"><Description dt:dt="string">E-Prime Primary Realtime Clock</Description><StartTime><Timestamp dt:dt="int">0</Timestamp><DateUtc dt:dt="string">2014-11-12T17:56:26Z</DateUtc></StartTime><FrequencyChanges><FrequencyChange><Frequency dt:dt="r8">2327520000</Frequency><Timestamp dt:dt="r8">315895328378</Timestamp><Current dt:dt="r8">0</Current><DateUtc dt:dt="string">2014-11-12T17:56:26Z</DateUtc></FrequencyChange></FrequencyChanges></Clock>\n,v4_BCL_f0_g-8-1,60.001,1.0.0.227,1,-1471148702,2.0.10.242,2.0.10.242,11-12-2014,11/12/2014 5:56:26 PM,12:56:26,2.0.10.147,73,,,,,,19,1,19,,,,1,,,g,,0.254,,,10.1,,,29.9,,,,,,TrialProc1,,,,vowel 1,vowel 2,2,163,276389,Block2,g1_f0_10_10_f2_29_90_dur_0_254_num_263.wav,,,,
v4_BCL_f0_g,8,1,<?xml version="1.0"?>\n<Clock xmlns:dt="urn:schemas-microsoft-com:datatypes"><Description dt:dt="string">E-Prime Primary Realtime Clock</Description><StartTime><Timestamp dt:dt="int">0</Timestamp><DateUtc dt:dt="string">2014-11-12T17:56:26Z</DateUtc></StartTime><FrequencyChanges><FrequencyChange><Frequency dt:dt="r8">2327520000</Frequency><Timestamp dt:dt="r8">315895328378</Timestamp><Current dt:dt="r8">0</Current><DateUtc dt:dt="string">2014-11-12T17:56:26Z</DateUtc></FrequencyChange></FrequencyChanges></Clock>\n,v4_BCL_f0_g-8-1,60.001,1.0.0.227,1,-1471148702,2.0.10.242,2.0.10.242,11-12-2014,11/12/2014 5:56:26 PM,12:56:26,2.0.10.147,74,,,,,,20,1,20,,,,2,,,g,,0.248,,,8.42,,,29.58,,,,,,TrialProc1,,,,vowel 1,vowel 2,,0,0,Block2,g2_f0_8_42_f2_29_58_dur_0_248_num_568.wav,,,,
v4_BCL_f0_g,8,1,<?xml version="1.0"?>\n<Clock xmlns:dt="urn:schemas-microsoft-com:datatypes"><Description dt:dt="string">E-Prime Primary Realtime Clock</Description><StartTime><Timestamp dt:dt="int">0</Timestamp><DateUtc dt:dt="string">2014-11-12T17:56:26Z</DateUtc></StartTime><FrequencyChanges><FrequencyChange><Frequency dt:dt="r8">2327520000</Frequency><Timestamp dt:dt="r8">315895328378</Timestamp><Current dt:dt="r8">0</Current><DateUtc dt:dt="string">2014-11-12T17:56:26Z</DateUtc></FrequencyChange></FrequencyChanges></Clock>\n,v4_BCL_f0_g-8-1,60.001,1.0.0.227,1,-1471148702,2.0.10.242,2.0.10.242,11-12-2014,11/12/2014 5:56:26 PM,12:56:26,2.0.10.147,75,,,,,,21,1,21,,,,1,,,g,,0.249,,,9.67,,,30.48,,,,,,TrialProc1,,,,vowel 1,vowel 2,2,418,279911,Block2,g1_f0_9_67_f2_30_48_dur_0_249_num_225.wav,,,,
v4_BCL_f0_g,8,1,<?xml version="1.0"?>\n<Clock xmlns:dt="urn:schemas-microsoft-com:datatypes"><Description dt:dt="string">E-Prime Primary Realtime Clock</Description><StartTime><Timestamp dt:dt="int">0</Timestamp><DateUtc dt:dt="string">2014-11-12T17:56:26Z</DateUtc></StartTime><FrequencyChanges><FrequencyChange><Frequency dt:dt="r8">2327520000</Frequency><Timestamp dt:dt="r8">315895328378</Timestamp><Current dt:dt="r8">0</Current><DateUtc dt:dt="string">2014-11-12T17:56:26Z</DateUtc></FrequencyChange></FrequencyChanges></Clock>\n,v4_BCL_f0_g-8-1,60.001,1.0.0.227,1,-1471148702,2.0.10.242,2.0.10.242,11-12-2014,11/12/2014 5:56:26 PM,12:56:26,2.0.10.147,76,,,,,,22,1,22,,,,1,,,g,,0.244,,,10.3,,,29.89,,,,,,TrialProc1,,,,vowel 1,vowel 2,2,133,280859,Block2,g1_f0_10_30_f2_29_89_dur_0_244_num_292.wav,,,,
v4_BCL_f0_g,8,1,<?xml version="1.0"?>\n<Clock xmlns:dt="urn:schemas-microsoft-com:datatypes"><Description dt:dt="string">E-Prime Primary Realtime Clock</Description><StartTime><Timestamp dt:dt="int">0</Timestamp><DateUtc dt:dt="string">2014-11-12T17:56:26Z</DateUtc></StartTime><FrequencyChanges><FrequencyChange><Frequency dt:dt="r8">2327520000</Frequency><Timestamp dt:dt="r8">315895328378</Timestamp><Current dt:dt="r8">0</Current><DateUtc dt:dt="string">2014-11-12T17:56:26Z</DateUtc></FrequencyChange></FrequencyChanges></Clock>\n,v4_BCL_f0_g-8-1,60.001,1.0.0.227,1,-1471148702,2.0.10.242,2.0.10.242,11-12-2014,11/12/2014 5:56:26 PM,12:56:26,2.0.10.147,77,,,,,,23,1,23,,,,2,,,g,,0.246,,,7.85,,,30.35,,,,,,TrialProc1,,,,vowel 1,vowel 2,1,120,281796,Block2,g2_f0_7_85_f2_30_35_dur_0_246_num_600.wav,,,,
v4_BCL_f0_g,8,1,<?xml version="1.0"?>\n<Clock xmlns:dt="urn:schemas-microsoft-com:datatypes"><Description dt:dt="string">E-Prime Primary Realtime Clock</Description><StartTime><Timestamp dt:dt="int">0</Timestamp><DateUtc dt:dt="string">2014-11-12T17:56:26Z</DateUtc></StartTime><FrequencyChanges><FrequencyChange><Frequency dt:dt="r8">2327520000</Frequency><Timestamp dt:dt="r8">315895328378</Timestamp><Current dt:dt="r8">0</Current><DateUtc dt:dt="string">2014-11-12T17:56:26Z</DateUtc></FrequencyChange></FrequencyChanges></Clock>\n,v4_BCL_f0_g-8-1,60.001,1.0.0.227,1,-1471148702,2.0.10.242,2.0.10.242,11-12-2014,11/12/2014 5:56:26 PM,12:56:26,2.0.10.147,78,,,,,,24,1,24,,,,1,,,g,,0.251,,,9.9,,,30.18,,,,,,TrialProc1,,,,vowel 1,vowel 2,2,150,282759,Block2,g1_f0_9_90_f2_30_18_dur_0_251_num_208.wav,,,,
v4_BCL_f0_g,8,1,<?xml version="1.0"?>\n<Clock xmlns:dt="urn:schemas-microsoft-com:datatypes"><Description dt:dt="string">E-Prime Primary Realtime Clock</Description><StartTime><Timestamp dt:dt="int">0</Timestamp><DateUtc dt:dt="string">2014-11-12T17:56:26Z</DateUtc></StartTime><FrequencyChanges><FrequencyChange><Frequency dt:dt="r8">2327520000</Frequency><Timestamp dt:dt="r8">315895328378</Timestamp><Current dt:dt="r8">0</Current><DateUtc dt:dt="string">2014-11-12T17:56:26Z</DateUtc></FrequencyChange></FrequencyChanges></Clock>\n,v4_BCL_f0_g-8-1,60.001,1.0.0.227,1,-1471148702,2.0.10.242,2.0.10.242,11-12-2014,11/12/2014 5:56:26 PM,12:56:26,2.0.10.147,79,,,,,,25,1,25,,,,1,,,g,,0.252,,,10.71,,,30.1,,,,,,TrialProc1,,,,vowel 1,vowel 2,2,281,283857,Block2,g1_f0_10_71_f2_30_10_dur_0_252_num_259.wav,,,,
v4_BCL_f0_g,8,1,<?xml version="1.0"?>\n<Clock xmlns:dt="urn:schemas-microsoft-com:datatypes"><Description dt:dt="string">E-Prime Primary Realtime Clock</Description><StartTime><Timestamp dt:dt="int">0</Timestamp><DateUtc dt:dt="string">2014-11-12T17:56:26Z</DateUtc></StartTime><FrequencyChanges><FrequencyChange><Frequency dt:dt="r8">2327520000</Frequency><Timestamp dt:dt="r8">315895328378</Timestamp><Current dt:dt="r8">0</Current><DateUtc dt:dt="string">2014-11-12T17:56:26Z</DateUtc></FrequencyChange></FrequencyChanges></Clock>\n,v4_BCL_f0_g-8-1,60.001,1.0.0.227,1,-1471148702,2.0.10.242,2.0.10.242,11-12-2014,11/12/2014 5:56:26 PM,12:56:26,2.0.10.147,80,,,,,,26,1,26,,,,2,,,g,,0.246,,,8.94,,,30.03,,,,,,TrialProc1,,,,vowel 1,vowel 2,1,101,284777,Block2,g2_f0_8_94_f2_30_03_dur_0_246_num_531.wav,,,,
v4_BCL_f0_g,8,1,<?xml version="1.0"?>\n<Clock xmlns:dt="urn:schemas-microsoft-com:datatypes"><Description dt:dt="string">E-Prime Primary Realtime Clock</Description><StartTime><Timestamp dt:dt="int">0</Timestamp><DateUtc dt:dt="string">2014-11-12T17:56:26Z</DateUtc></StartTime><FrequencyChanges><FrequencyChange><Frequency dt:dt="r8">2327520000</Frequency><Timestamp dt:dt="r8">315895328378</Timestamp><Current dt:dt="r8">0</Current><DateUtc dt:dt="string">2014-11-12T17:56:26Z</DateUtc></FrequencyChange></FrequencyChanges></Clock>\n,v4_BCL_f0_g-8-1,60.001,1.0.0.227,1,-1471148702,2.0.10.242,2.0.10.242,11-12-2014,11/12/2014 5:56:26 PM,12:56:26,2.0.10.147,81,,,,,,27,1,27,,,,2,,,g,,0.245,,,8,,,30.59,,,,,,TrialProc1,,,,vowel 1,vowel 2,1,37,285630,Block2,g2_f0_8_00_f2_30_59_dur_0_245_num_543.wav,,,,
v4_BCL_f0_g,8,1,<?xml version="1.0"?>\n<Clock xmlns:dt="urn:schemas-microsoft-com:datatypes"><Description dt:dt="string">E-Prime Primary Realtime Clock</Description><StartTime><Timestamp dt:dt="int">0</Timestamp><DateUtc dt:dt="string">2014-11-12T17:56:26Z</DateUtc></StartTime><FrequencyChanges><FrequencyChange><Frequency dt:dt="r8">2327520000</Frequency><Timestamp dt:dt="r8">315895328378</Timestamp><Current dt:dt="r8">0</Current><DateUtc dt:dt="string">2014-11-12T17:56:26Z</DateUtc></FrequencyChange></FrequencyChanges></Clock>\n,v4_BCL_f0_g-8-1,60.001,1.0.0.227,1,-1471148702,2.0.10.242,2.0.10.242,11-12-2014,11/12/2014 5:56:26 PM,12:56:26,2.0.10.147,82,,,,,,28,1,28,,,,1,,,g,,0.255,,,9.07,,,31.55,,,,,,TrialProc1,,,,vowel 1,vowel 2,1,403,286846,Block2,g1_f0_9_07_f2_31_55_dur_0_255_num_204.wav,,,,
v4_BCL_f0_g,8,1,<?xml version="1.0"?>\n<Clock xmlns:dt="urn:schemas-microsoft-com:datatypes"><Description dt:dt="string">E-Prime Primary Realtime Clock</Description><StartTime><Timestamp dt:dt="int">0</Timestamp><DateUtc dt:dt="string">2014-11-12T17:56:26Z</DateUtc></StartTime><FrequencyChanges><FrequencyChange><Frequency dt:dt="r8">2327520000</Frequency><Timestamp dt:dt="r8">315895328378</Timestamp><Current dt:dt="r8">0</Current><DateUtc dt:dt="string">2014-11-12T17:56:26Z</DateUtc></FrequencyChange></FrequencyChanges></Clock>\n,v4_BCL_f0_g-8-1,60.001,1.0.0.227,1,-1471148702,2.0.10.242,2.0.10.242,11-12-2014,11/12/2014 5:56:26 PM,12:56:26,2.0.10.147,83,,,,,,29,1,29,,,,2,,,g,,0.253,,,8.54,,,30.18,,,,,,TrialProc1,,,,vowel 1,vowel 2,1,187,287846,Block2,g2_f0_8_54_f2_30_18_dur_0_253_num_548.wav,,,,
v4_BCL_f0_g,8,1,<?xml version="1.0"?>\n<Clock xmlns:dt="urn:schemas-microsoft-com:datatypes"><Description dt:dt="string">E-Prime Primary Realtime Clock</Description><StartTime><Timestamp dt:dt="int">0</Timestamp><DateUtc dt:dt="string">2014-11-12T17:56:26Z</DateUtc></StartTime><FrequencyChanges><FrequencyChange><Frequency dt:dt="r8">2327520000</Frequency><Timestamp dt:dt="r8">315895328378</Timestamp><Current dt:dt="r8">0</Current><DateUtc dt:dt="string">2014-11-12T17:56:26Z</DateUtc></FrequencyChange></FrequencyChanges></Clock>\n,v4_BCL_f0_g-8-1,60.001,1.0.0.227,1,-1471148702,2.0.10.242,2.0.10.242,11-12-2014,11/12/2014 5:56:26 PM,12:56:26,2.0.10.147,84,,,,,,30,1,30,,,,2,,,g,,0.247,,,7.81,,,30.96,,,,,,TrialProc1,,,,vowel 1,vowel 2,1,189,288848,Block2,g2_f0_7_81_f2_30_96_dur_0_247_num_530.wav,,,,
v4_BCL_f0_g,8,1,<?xml version="1.0"?>\n<Clock xmlns:dt="urn:schemas-microsoft-com:datatypes"><Description dt:dt="string">E-Prime Primary Realtime Clock</Description><StartTime><Timestamp dt:dt="int">0</Timestamp><DateUtc dt:dt="string">2014-11-12T17:56:26Z</DateUtc></StartTime><FrequencyChanges><FrequencyChange><Frequency dt:dt="r8">2327520000</Frequency><Timestamp dt:dt="r8">315895328378</Timestamp><Current dt:dt="r8">0</Current><DateUtc dt:dt="string">2014-11-12T17:56:26Z</DateUtc></FrequencyChange></FrequencyChanges></Clock>\n,v4_BCL_f0_g-8-1,60.001,1.0.0.227,1,-1471148702,2.0.10.242,2.0.10.242,11-12-2014,11/12/2014 5:56:26 PM,12:56:26,2.0.10.147,85,,,,,,31,1,31,,,,1,,,g,,0.248,,,9.83,,,29.8,,,,,,TrialProc1,,,,vowel 1,vowel 2,2,151,289810,Block2,g1_f0_9_83_f2_29_80_dur_0_248_num_300.wav,,,,
v4_BCL_f0_g,8,1,<?xml version="1.0"?>\n<Clock xmlns:dt="urn:schemas-microsoft-com:datatypes"><Description dt:dt="string">E-Prime Primary Realtime Clock</Description><StartTime><Timestamp dt:dt="int">0</Timestamp><DateUtc dt:dt="string">2014-11-12T17:56:26Z</DateUtc></StartTime><FrequencyChanges><FrequencyChange><Frequency dt:dt="r8">2327520000</Frequency><Timestamp dt:dt="r8">315895328378</Timestamp><Current dt:dt="r8">0</Current><DateUtc dt:dt="string">2014-11-12T17:56:26Z</DateUtc></FrequencyChange></FrequencyChanges></Clock>\n,v4_BCL_f0_g-8-1,60.001,1.0.0.227,1,-1471148702,2.0.10.242,2.0.10.242,11-12-2014,11/12/2014 5:56:26 PM,12:56:26,2.0.10.147,86,,,,,,32,1,32,,,,1,,,g,,0.253,,,9.45,,,30.88,,,,,,TrialProc1,,,,vowel 1,vowel 2,2,588,291214,Block2,g1_f0_9_45_f2_30_88_dur_0_253_num_239.wav,,,,
v4_BCL_f0_g,8,1,<?xml version="1.0"?>\n<Clock xmlns:dt="urn:schemas-microsoft-com:datatypes"><Description dt:dt="string">E-Prime Primary Realtime Clock</Description><StartTime><Timestamp dt:dt="int">0</Timestamp><DateUtc dt:dt="string">2014-11-12T17:56:26Z</DateUtc></StartTime><FrequencyChanges><FrequencyChange><Frequency dt:dt="r8">2327520000</Frequency><Timestamp dt:dt="r8">315895328378</Timestamp><Current dt:dt="r8">0</Current><DateUtc dt:dt="string">2014-11-12T17:56:26Z</DateUtc></FrequencyChange></FrequencyChanges></Clock>\n,v4_BCL_f0_g-8-1,60.001,1.0.0.227,1,-1471148702,2.0.10.242,2.0.10.242,11-12-2014,11/12/2014 5:56:26 PM,12:56:26,2.0.10.147,87,,,,,,33,1,33,,,,1,,,g,,0.254,,,10.34,,,29.82,,,,,,TrialProc1,,,,vowel 1,vowel 2,2,208,292234,Block2,g1_f0_10_34_f2_29_82_dur_0_254_num_250.wav,,,,
v4_BCL_f0_g,8,1,<?xml version="1.0"?>\n<Clock xmlns:dt="urn:schemas-microsoft-com:datatypes"><Description dt:dt="string">E-Prime Primary Realtime Clock</Description><StartTime><Timestamp dt:dt="int">0</Timestamp><DateUtc dt:dt="string">2014-11-12T17:56:26Z</DateUtc></StartTime><FrequencyChanges><FrequencyChange><Frequency dt:dt="r8">2327520000</Frequency><Timestamp dt:dt="r8">315895328378</Timestamp><Current dt:dt="r8">0</Current><DateUtc dt:dt="string">2014-11-12T17:56:26Z</DateUtc></FrequencyChange></FrequencyChanges></Clock>\n,v4_BCL_f0_g-8-1,60.001,1.0.0.227,1,-1471148702,2.0.10.242,2.0.10.242,11-12-2014,11/12/2014 5:56:26 PM,12:56:26,2.0.10.147,88,,,,,,34,1,34,,,,2,,,g,,0.25,,,8.54,,,29.45,,,,,,TrialProc1,,,,vowel 1,vowel 2,1,36,293095,Block2,g2_f0_8_54_f2_29_45_dur_0_250_num_594.wav,,,,
v4_BCL_f0_g,8,1,<?xml version="1.0"?>\n<Clock xmlns:dt="urn:schemas-microsoft-com:datatypes"><Description dt:dt="string">E-Prime Primary Realtime Clock</Description><StartTime><Timestamp dt:dt="int">0</Timestamp><DateUtc dt:dt="string">2014-11-12T17:56:26Z</DateUtc></StartTime><FrequencyChanges><FrequencyChange><Frequency dt:dt="r8">2327520000</Frequency><Timestamp dt:dt="r8">315895328378</Timestamp><Current dt:dt="r8">0</Current><DateUtc dt:dt="string">2014-11-12T17:56:26Z</DateUtc></FrequencyChange></FrequencyChanges></Clock>\n,v4_BCL_f0_g-8-1,60.001,1.0.0.227,1,-1471148702,2.0.10.242,2.0.10.242,11-12-2014,11/12/2014 5:56:26 PM,12:56:26,2.0.10.147,89,,,,,,35,1,35,,,,1,,,g,,0.251,,,9.3,,,31.08,,,,,,TrialProc1,,,,vowel 1,vowel 2,2,367,294276,Block2,g1_f0_9_30_f2_31_08_dur_0_251_num_290.wav,,,,
v4_BCL_f0_g,8,1,<?xml version="1.0"?>\n<Clock xmlns:dt="urn:schemas-microsoft-com:datatypes"><Description dt:dt="string">E-Prime Primary Realtime Clock</Description><StartTime><Timestamp dt:dt="int">0</Timestamp><DateUtc dt:dt="string">2014-11-12T17:56:26Z</DateUtc></StartTime><FrequencyChanges><FrequencyChange><Frequency dt:dt="r8">2327520000</Frequency><Timestamp dt:dt="r8">315895328378</Timestamp><Current dt:dt="r8">0</Current><DateUtc dt:dt="string">2014-11-12T17:56:26Z</DateUtc></FrequencyChange></FrequencyChanges></Clock>\n,v4_BCL_f0_g-8-1,60.001,1.0.0.227,1,-1471148702,2.0.10.242,2.0.10.242,11-12-2014,11/12/2014 5:56:26 PM,12:56:26,2.0.10.147,90,,,,,,36,1,36,,,,1,,,g,,0.253,,,9.64,,,30.94,,,,,,TrialProc1,,,,vowel 1,vowel 2,2,222,295314,Block2,g1_f0_9_64_f2_30_94_dur_0_253_num_282.wav,,,,
v4_BCL_f0_g,8,1,<?xml version="1.0"?>\n<Clock xmlns:dt="urn:schemas-microsoft-com:datatypes"><Description dt:dt="string">E-Prime Primary Realtime Clock</Description><StartTime><Timestamp dt:dt="int">0</Timestamp><DateUtc dt:dt="string">2014-11-12T17:56:26Z</DateUtc></StartTime><FrequencyChanges><FrequencyChange><Frequency dt:dt="r8">2327520000</Frequency><Timestamp dt:dt="r8">315895328378</Timestamp><Current dt:dt="r8">0</Current><DateUtc dt:dt="string">2014-11-12T17:56:26Z</DateUtc></FrequencyChange></FrequencyChanges></Clock>\n,v4_BCL_f0_g-8-1,60.001,1.0.0.227,1,-1471148702,2.0.10.242,2.0.10.242,11-12-2014,11/12/2014 5:56:26 PM,12:56:26,2.0.10.147,91,,,,,,37,1,37,,,,2,,,g,,0.252,,,8.17,,,30.33,,,,,,TrialProc1,,,,vowel 1,vowel 2,1,152,296278,Block2,g2_f0_8_17_f2_30_33_dur_0_252_num_563.wav,,,,
v4_BCL_f0_g,8,1,<?xml version="1.0"?>\n<Clock xmlns:dt="urn:schemas-microsoft-com:datatypes"><Description dt:dt="string">E-Prime Primary Realtime Clock</Description><StartTime><Timestamp dt:dt="int">0</Timestamp><DateUtc dt:dt="string">2014-11-12T17:56:26Z</DateUtc></StartTime><FrequencyChanges><FrequencyChange><Frequency dt:dt="r8">2327520000</Frequency><Timestamp dt:dt="r8">315895328378</Timestamp><Current dt:dt="r8">0</Current><DateUtc dt:dt="string">2014-11-12T17:56:26Z</DateUtc></FrequencyChange></FrequencyChanges></Clock>\n,v4_BCL_f0_g-8-1,60.001,1.0.0.227,1,-1471148702,2.0.10.242,2.0.10.242,11-12-2014,11/12/2014 5:56:26 PM,12:56:26,2.0.10.147,92,,,,,,38,1,38,,,,2,,,g,,0.256,,,8.57,,,29.24,,,,,,TrialProc1,,,,vowel 1,vowel 2,2,347,297439,Block2,g2_f0_8_57_f2_29_24_dur_0_256_num_542.wav,,,,
v4_BCL_f0_g,8,1,<?xml version="1.0"?>\n<Clock xmlns:dt="urn:schemas-microsoft-com:datatypes"><Description dt:dt="string">E-Prime Primary Realtime Clock</Description><StartTime><Timestamp dt:dt="int">0</Timestamp><DateUtc dt:dt="string">2014-11-12T17:56:26Z</DateUtc></StartTime><FrequencyChanges><FrequencyChange><Frequency dt:dt="r8">2327520000</Frequency><Timestamp dt:dt="r8">315895328378</Timestamp><Current dt:dt="r8">0</Current><DateUtc dt:dt="string">2014-11-12T17:56:26Z</DateUtc></FrequencyChange></FrequencyChanges></Clock>\n,v4_BCL_f0_g-8-1,60.001,1.0.0.227,1,-1471148702,2.0.10.242,2.0.10.242,11-12-2014,11/12/2014 5:56:26 PM,12:56:26,2.0.10.147,93,,,,,,39,1,39,,,,2,,,g,,0.256,,,8.15,,,30.17,,,,,,TrialProc1,,,,vowel 1,vowel 2,1,314,298556,Block2,g2_f0_8_15_f2_30_17_dur_0_256_num_539.wav,,,,
v4_BCL_f0_g,8,1,<?xml version="1.0"?>\n<Clock xmlns:dt="urn:schemas-microsoft-com:datatypes"><Description dt:dt="string">E-Prime Primary Realtime Clock</Description><StartTime><Timestamp dt:dt="int">0</Timestamp><DateUtc dt:dt="string">2014-11-12T17:56:26Z</DateUtc></StartTime><FrequencyChanges><FrequencyChange><Frequency dt:dt="r8">2327520000</Frequency><Timestamp dt:dt="r8">315895328378</Timestamp><Current dt:dt="r8">0</Current><DateUtc dt:dt="string">2014-11-12T17:56:26Z</DateUtc></FrequencyChange></FrequencyChanges></Clock>\n,v4_BCL_f0_g-8-1,60.001,1.0.0.227,1,-1471148702,2.0.10.242,2.0.10.242,11-12-2014,11/12/2014 5:56:26 PM,12:56:26,2.0.10.147,94,,,,,,40,1,40,,,,1,,,g,,0.254,,,9.12,,,31.23,,,,,,TrialProc1,,,,vowel 1,vowel 2,2,274,299633,Block2,g1_f0_9_12_f2_31_23_dur_0_254_num_280.wav,,,,
v4_BCL_f0_g,8,1,<?xml version="1.0"?>\n<Clock xmlns:dt="urn:schemas-microsoft-com:datatypes"><Description dt:dt="string">E-Prime Primary Realtime Clock</Description><StartTime><Timestamp dt:dt="int">0</Timestamp><DateUtc dt:dt="string">2014-11-12T17:56:26Z</DateUtc></StartTime><FrequencyChanges><FrequencyChange><Frequency dt:dt="r8">2327520000</Frequency><Timestamp dt:dt="r8">315895328378</Timestamp><Current dt:dt="r8">0</Current><DateUtc dt:dt="string">2014-11-12T17:56:26Z</DateUtc></FrequencyChange></FrequencyChanges></Clock>\n,v4_BCL_f0_g-8-1,60.001,1.0.0.227,1,-1471148702,2.0.10.242,2.0.10.242,11-12-2014,11/12/2014 5:56:26 PM,12:56:26,2.0.10.147,95,,,,,,41,1,41,,,,2,,,g,,0.25,,,7.54,,,30.21,,,,,,TrialProc1,,,,vowel 1,vowel 2,1,65,300507,Block2,g2_f0_7_54_f2_30_21_dur_0_250_num_582.wav,,,,
v4_BCL_f0_g,8,1,<?xml version="1.0"?>\n<Clock xmlns:dt="urn:schemas-microsoft-com:datatypes"><Description dt:dt="string">E-Prime Primary Realtime Clock</Description><StartTime><Timestamp dt:dt="int">0</Timestamp><DateUtc dt:dt="string">2014-11-12T17:56:26Z</DateUtc></StartTime><FrequencyChanges><FrequencyChange><Frequency dt:dt="r8">2327520000</Frequency><Timestamp dt:dt="r8">315895328378</Timestamp><Current dt:dt="r8">0</Current><DateUtc dt:dt="string">2014-11-12T17:56:26Z</DateUtc></FrequencyChange></FrequencyChanges></Clock>\n,v4_BCL_f0_g-8-1,60.001,1.0.0.227,1,-1471148702,2.0.10.242,2.0.10.242,11-12-2014,11/12/2014 5:56:26 PM,12:56:26,2.0.10.147,96,,,,,,42,1,42,,,,2,,,g,,0.252,,,10.09,,,28.14,,,,,,TrialProc1,,,,vowel 1,vowel 2,2,185,301511,Block2,g2_f0_10_09_f2_28_14_dur_0_252_num_584.wav,,,,
v4_BCL_f0_g,8,1,<?xml version="1.0"?>\n<Clock xmlns:dt="urn:schemas-microsoft-com:datatypes"><Description dt:dt="string">E-Prime Primary Realtime Clock</Description><StartTime><Timestamp dt:dt="int">0</Timestamp><DateUtc dt:dt="string">2014-11-12T17:56:26Z</DateUtc></StartTime><FrequencyChanges><FrequencyChange><Frequency dt:dt="r8">2327520000</Frequency><Timestamp dt:dt="r8">315895328378</Timestamp><Current dt:dt="r8">0</Current><DateUtc dt:dt="string">2014-11-12T17:56:26Z</DateUtc></FrequencyChange></FrequencyChanges></Clock>\n,v4_BCL_f0_g-8-1,60.001,1.0.0.227,1,-1471148702,2.0.10.242,2.0.10.242,11-12-2014,11/12/2014 5:56:26 PM,12:56:26,2.0.10.147,97,,,,,,43,1,43,,,,2,,,g,,0.254,,,8.36,,,29.9,,,,,,TrialProc1,,,,vowel 1,vowel 2,1,261,302587,Block2,g2_f0_8_36_f2_29_90_dur_0_254_num_587.wav,,,,
v4_BCL_f0_g,8,1,<?xml version="1.0"?>\n<Clock xmlns:dt="urn:schemas-microsoft-com:datatypes"><Description dt:dt="string">E-Prime Primary Realtime Clock</Description><StartTime><Timestamp dt:dt="int">0</Timestamp><DateUtc dt:dt="string">2014-11-12T17:56:26Z</DateUtc></StartTime><FrequencyChanges><FrequencyChange><Frequency dt:dt="r8">2327520000</Frequency><Timestamp dt:dt="r8">315895328378</Timestamp><Current dt:dt="r8">0</Current><DateUtc dt:dt="string">2014-11-12T17:56:26Z</DateUtc></FrequencyChange></FrequencyChanges></Clock>\n,v4_BCL_f0_g-8-1,60.001,1.0.0.227,1,-1471148702,2.0.10.242,2.0.10.242,11-12-2014,11/12/2014 5:56:26 PM,12:56:26,2.0.10.147,98,,,,,,44,1,44,,,,1,,,g,,0.247,,,10.56,,,30.15,,,,,,TrialProc1,,,,vowel 1,vowel 2,2,204,303613,Block2,g1_f0_10_56_f2_30_15_dur_0_247_num_233.wav,,,,
v4_BCL_f0_g,8,1,<?xml version="1.0"?>\n<Clock xmlns:dt="urn:schemas-microsoft-com:datatypes"><Description dt:dt="string">E-Prime Primary Realtime Clock</Description><StartTime><Timestamp dt:dt="int">0</Timestamp><DateUtc dt:dt="string">2014-11-12T17:56:26Z</DateUtc></StartTime><FrequencyChanges><FrequencyChange><Frequency dt:dt="r8">2327520000</Frequency><Timestamp dt:dt="r8">315895328378</Timestamp><Current dt:dt="r8">0</Current><DateUtc dt:dt="string">2014-11-12T17:56:26Z</DateUtc></FrequencyChange></FrequencyChanges></Clock>\n,v4_BCL_f0_g-8-1,60.001,1.0.0.227,1,-1471148702,2.0.10.242,2.0.10.242,11-12-2014,11/12/2014 5:56:26 PM,12:56:26,2.0.10.147,99,,,,,,45,1,45,,,,2,,,g,,0.255,,,7.89,,,29.99,,,,,,TrialProc1,,,,vowel 1,vowel 2,1,647,305073,Block2,g2_f0_7_89_f2_29_99_dur_0_255_num_569.wav,,,,
v4_BCL_f0_g,8,1,<?xml version="1.0"?>\n<Clock xmlns:dt="urn:schemas-microsoft-com:datatypes"><Description dt:dt="string">E-Prime Primary Realtime Clock</Description><StartTime><Timestamp dt:dt="int">0</Timestamp><DateUtc dt:dt="string">2014-11-12T17:56:26Z</DateUtc></StartTime><FrequencyChanges><FrequencyChange><Frequency dt:dt="r8">2327520000</Frequency><Timestamp dt:dt="r8">315895328378</Timestamp><Current dt:dt="r8">0</Current><DateUtc dt:dt="string">2014-11-12T17:56:26Z</DateUtc></FrequencyChange></FrequencyChanges></Clock>\n,v4_BCL_f0_g-8-1,60.001,1.0.0.227,1,-1471148702,2.0.10.242,2.0.10.242,11-12-2014,11/12/2014 5:56:26 PM,12:56:26,2.0.10.147,100,,,,,,46,1,46,,,,2,,,g,,0.249,,,8.3,,,29.51,,,,,,TrialProc1,,,,vowel 1,vowel 2,1,307,306199,Block2,g2_f0_8_30_f2_29_51_dur_0_249_num_512.wav,,,,
v4_BCL_f0_g,8,1,<?xml version="1.0"?>\n<Clock xmlns:dt="urn:schemas-microsoft-com:datatypes"><Description dt:dt="string">E-Prime Primary Realtime Clock</Description><StartTime><Timestamp dt:dt="int">0</Timestamp><DateUtc dt:dt="string">2014-11-12T17:56:26Z</DateUtc></StartTime><FrequencyChanges><FrequencyChange><Frequency dt:dt="r8">2327520000</Frequency><Timestamp dt:dt="r8">315895328378</Timestamp><Current dt:dt="r8">0</Current><DateUtc dt:dt="string">2014-11-12T17:56:26Z</DateUtc></FrequencyChange></FrequencyChanges></Clock>\n,v4_BCL_f0_g-8-1,60.001,1.0.0.227,1,-1471148702,2.0.10.242,2.0.10.242,11-12-2014,11/12/2014 5:56:26 PM,12:56:26,2.0.10.147,101,,,,,,47,1,47,,,,1,,,g,,0.244,,,10.73,,,29.83,,,,,,TrialProc1,,,,vowel 1,vowel 2,2,129,307138,Block2,g1_f0_10_73_f2_29_83_dur_0_244_num_262.wav,,,,
v4_BCL_f0_g,8,1,<?xml version="1.0"?>\n<Clock xmlns:dt="urn:schemas-microsoft-com:datatypes"><Description dt:dt="string">E-Prime Primary Realtime Clock</Description><StartTime><Timestamp dt:dt="int">0</Timestamp><DateUtc dt:dt="string">2014-11-12T17:56:26Z</DateUtc></StartTime><FrequencyChanges><FrequencyChange><Frequency dt:dt="r8">2327520000</Frequency><Timestamp dt:dt="r8">315895328378</Timestamp><Current dt:dt="r8">0</Current><DateUtc dt:dt="string">2014-11-12T17:56:26Z</DateUtc></FrequencyChange></FrequencyChanges></Clock>\n,v4_BCL_f0_g-8-1,60.001,1.0.0.227,1,-1471148702,2.0.10.242,2.0.10.242,11-12-2014,11/12/2014 5:56:26 PM,12:56:26,2.0.10.147,102,,,,,,48,1,48,,,,2,,,g,,0.245,,,7.84,,,30.66,,,,,,TrialProc1,,,,vowel 1,vowel 2,1,177,308119,Block2,g2_f0_7_84_f2_30_66_dur_0_245_num_523.wav,,,,
v4_BCL_f0_g,8,1,<?xml version="1.0"?>\n<Clock xmlns:dt="urn:schemas-microsoft-com:datatypes"><Description dt:dt="string">E-Prime Primary Realtime Clock</Description><StartTime><Timestamp dt:dt="int">0</Timestamp><DateUtc dt:dt="string">2014-11-12T17:56:26Z</DateUtc></StartTime><FrequencyChanges><FrequencyChange><Frequency dt:dt="r8">2327520000</Frequency><Timestamp dt:dt="r8">315895328378</Timestamp><Current dt:dt="r8">0</Current><DateUtc dt:dt="string">2014-11-12T17:56:26Z</DateUtc></FrequencyChange></FrequencyChanges></Clock>\n,v4_BCL_f0_g-8-1,60.001,1.0.0.227,1,-1471148702,2.0.10.242,2.0.10.242,11-12-2014,11/12/2014 5:56:26 PM,12:56:26,2.0.10.147,103,,,,,,49,1,49,,,,2,,,g,,0.249,,,8.92,,,29.04,,,,,,TrialProc1,,,,vowel 1,vowel 2,2,115,309057,Block2,g2_f0_8_92_f2_29_04_dur_0_249_num_561.wav,,,,
v4_BCL_f0_g,8,1,<?xml version="1.0"?>\n<Clock xmlns:dt="urn:schemas-microsoft-com:datatypes"><Description dt:dt="string">E-Prime Primary Realtime Clock</Description><StartTime><Timestamp dt:dt="int">0</Timestamp><DateUtc dt:dt="string">2014-11-12T17:56:26Z</DateUtc></StartTime><FrequencyChanges><FrequencyChange><Frequency dt:dt="r8">2327520000</Frequency><Timestamp dt:dt="r8">315895328378</Timestamp><Current dt:dt="r8">0</Current><DateUtc dt:dt="string">2014-11-12T17:56:26Z</DateUtc></FrequencyChange></FrequencyChanges></Clock>\n,v4_BCL_f0_g-8-1,60.001,1.0.0.227,1,-1471148702,2.0.10.242,2.0.10.242,11-12-2014,11/12/2014 5:56:26 PM,12:56:26,2.0.10.147,104,,,,,,50,1,50,,,,2,,,g,,0.248,,,8.13,,,30.21,,,,,,TrialProc1,,,,vowel 1,vowel 2,1,223,310099,Block2,g2_f0_8_13_f2_30_21_dur_0_248_num_545.wav,,,,
v4_BCL_f0_g,8,1,<?xml version="1.0"?>\n<Clock xmlns:dt="urn:schemas-microsoft-com:datatypes"><Description dt:dt="string">E-Prime Primary Realtime Clock</Description><StartTime><Timestamp dt:dt="int">0</Timestamp><DateUtc dt:dt="string">2014-11-12T17:56:26Z</DateUtc></StartTime><FrequencyChanges><FrequencyChange><Frequency dt:dt="r8">2327520000</Frequency><Timestamp dt:dt="r8">315895328378</Timestamp><Current dt:dt="r8">0</Current><DateUtc dt:dt="string">2014-11-12T17:56:26Z</DateUtc></FrequencyChange></FrequencyChanges></Clock>\n,v4_BCL_f0_g-8-1,60.001,1.0.0.227,1,-1471148702,2.0.10.242,2.0.10.242,11-12-2014,11/12/2014 5:56:26 PM,12:56:26,2.0.10.147,105,,,,,,51,1,51,,,,1,,,g,,0.249,,,10.41,,,30.3,,,,,,TrialProc1,,,,vowel 1,vowel 2,2,111,311020,Block2,g1_f0_10_41_f2_30_30_dur_0_249_num_289.wav,,,,
v4_BCL_f0_g,8,1,<?xml version="1.0"?>\n<Clock xmlns:dt="urn:schemas-microsoft-com:datatypes"><Description dt:dt="string">E-Prime Primary Realtime Clock</Description><StartTime><Timestamp dt:dt="int">0</Timestamp><DateUtc dt:dt="string">2014-11-12T17:56:26Z</DateUtc></StartTime><FrequencyChanges><FrequencyChange><Frequency dt:dt="r8">2327520000</Frequency><Timestamp dt:dt="r8">315895328378</Timestamp><Current dt:dt="r8">0</Current><DateUtc dt:dt="string">2014-11-12T17:56:26Z</DateUtc></FrequencyChange></FrequencyChanges></Clock>\n,v4_BCL_f0_g-8-1,60.001,1.0.0.227,1,-1471148702,2.0.10.242,2.0.10.242,11-12-2014,11/12/2014 5:56:26 PM,12:56:26,2.0.10.147,106,,,,,,52,1,52,,,,2,,,g,,0.251,,,8.23,,,30.38,,,,,,TrialProc1,,,,vowel 1,vowel 2,1,155,311997,Block2,g2_f0_8_23_f2_30_38_dur_0_251_num_599.wav,,,,
v4_BCL_f0_g,8,1,<?xml version="1.0"?>\n<Clock xmlns:dt="urn:schemas-microsoft-com:datatypes"><Description dt:dt="string">E-Prime Primary Realtime Clock</Description><StartTime><Timestamp dt:dt="int">0</Timestamp><DateUtc dt:dt="string">2014-11-12T17:56:26Z</DateUtc></StartTime><FrequencyChanges><FrequencyChange><Frequency dt:dt="r8">2327520000</Frequency><Timestamp dt:dt="r8">315895328378</Timestamp><Current dt:dt="r8">0</Current><DateUtc dt:dt="string">2014-11-12T17:56:26Z</DateUtc></FrequencyChange></FrequencyChanges></Clock>\n,v4_BCL_f0_g-8-1,60.001,1.0.0.227,1,-1471148702,2.0.10.242,2.0.10.242,11-12-2014,11/12/2014 5:56:26 PM,12:56:26,2.0.10.147,107,,,,,,53,1,53,,,,1,,,g,,0.25,,,9.96,,,29.92,,,,,,TrialProc1,,,,vowel 1,vowel 2,2,178,312987,Block2,g1_f0_9_96_f2_29_92_dur_0_250_num_255.wav,,,,
v4_BCL_f0_g,8,1,<?xml version="1.0"?>\n<Clock xmlns:dt="urn:schemas-microsoft-com:datatypes"><Description dt:dt="string">E-Prime Primary Realtime Clock</Description><StartTime><Timestamp dt:dt="int">0</Timestamp><DateUtc dt:dt="string">2014-11-12T17:56:26Z</DateUtc></StartTime><FrequencyChanges><FrequencyChange><Frequency dt:dt="r8">2327520000</Frequency><Timestamp dt:dt="r8">315895328378</Timestamp><Current dt:dt="r8">0</Current><DateUtc dt:dt="string">2014-11-12T17:56:26Z</DateUtc></FrequencyChange></FrequencyChanges></Clock>\n,v4_BCL_f0_g-8-1,60.001,1.0.0.227,1,-1471148702,2.0.10.242,2.0.10.242,11-12-2014,11/12/2014 5:56:26 PM,12:56:26,2.0.10.147,108,,,,,,54,1,54,,,,2,,,g,,0.25,,,7.94,,,30.35,,,,,,TrialProc1,,,,vowel 1,vowel 2,1,154,313963,Block2,g2_f0_7_94_f2_30_35_dur_0_250_num_550.wav,,,,
v4_BCL_f0_g,8,1,<?xml version="1.0"?>\n<Clock xmlns:dt="urn:schemas-microsoft-com:datatypes"><Description dt:dt="string">E-Prime Primary Realtime Clock</Description><StartTime><Timestamp dt:dt="int">0</Timestamp><DateUtc dt:dt="string">2014-11-12T17:56:26Z</DateUtc></StartTime><FrequencyChanges><FrequencyChange><Frequency dt:dt="r8">2327520000</Frequency><Timestamp dt:dt="r8">315895328378</Timestamp><Current dt:dt="r8">0</Current><DateUtc dt:dt="string">2014-11-12T17:56:26Z</DateUtc></FrequencyChange></FrequencyChanges></Clock>\n,v4_BCL_f0_g-8-1,60.001,1.0.0.227,1,-1471148702,2.0.10.242,2.0.10.242,11-12-2014,11/12/2014 5:56:26 PM,12:56:26,2.0.10.147,109,,,,,,55,1,55,,,,2,,,g,,0.25,,,6.96,,,30.96,,,,,,TrialProc1,,,,vowel 1,vowel 2,1,211,314987,Block2,g2_f0_6_96_f2_30_96_dur_0_250_num_567.wav,,,,
v4_BCL_f0_g,8,1,<?xml version="1.0"?>\n<Clock xmlns:dt="urn:schemas-microsoft-com:datatypes"><Description dt:dt="string">E-Prime Primary Realtime Clock</Description><StartTime><Timestamp dt:dt="int">0</Timestamp><DateUtc dt:dt="string">2014-11-12T17:56:26Z</DateUtc></StartTime><FrequencyChanges><FrequencyChange><Frequency dt:dt="r8">2327520000</Frequency><Timestamp dt:dt="r8">315895328378</Timestamp><Current dt:dt="r8">0</Current><DateUtc dt:dt="string">2014-11-12T17:56:26Z</DateUtc></FrequencyChange></FrequencyChanges></Clock>\n,v4_BCL_f0_g-8-1,60.001,1.0.0.227,1,-1471148702,2.0.10.242,2.0.10.242,11-12-2014,11/12/2014 5:56:26 PM,12:56:26,2.0.10.147,110,,,,,,56,1,56,,,,2,,,g,,0.249,,,9.06,,,28.73,,,,,,TrialProc1,,,,vowel 1,vowel 2,2,188,315980,Block2,g2_f0_9_06_f2_28_73_dur_0_249_num_513.wav,,,,
v4_BCL_f0_g,8,1,<?xml version="1.0"?>\n<Clock xmlns:dt="urn:schemas-microsoft-com:datatypes"><Description dt:dt="string">E-Prime Primary Realtime Clock</Description><StartTime><Timestamp dt:dt="int">0</Timestamp><DateUtc dt:dt="string">2014-11-12T17:56:26Z</DateUtc></StartTime><FrequencyChanges><FrequencyChange><Frequency dt:dt="r8">2327520000</Frequency><Timestamp dt:dt="r8">315895328378</Timestamp><Current dt:dt="r8">0</Current><DateUtc dt:dt="string">2014-11-12T17:56:26Z</DateUtc></FrequencyChange></FrequencyChanges></Clock>\n,v4_BCL_f0_g-8-1,60.001,1.0.0.227,1,-1471148702,2.0.10.242,2.0.10.242,11-12-2014,11/12/2014 5:56:26 PM,12:56:26,2.0.10.147,111,,,,,,57,1,57,,,,2,,,g,,0.245,,,9.47,,,28.95,,,,,,TrialProc1,,,,vowel 1,vowel 2,2,399,317191,Block2,g2_f0_9_47_f2_28_95_dur_0_245_num_526.wav,,,,
v4_BCL_f0_g,8,1,<?xml version="1.0"?>\n<Clock xmlns:dt="urn:schemas-microsoft-com:datatypes"><Description dt:dt="string">E-Prime Primary Realtime Clock</Description><StartTime><Timestamp dt:dt="int">0</Timestamp><DateUtc dt:dt="string">2014-11-12T17:56:26Z</DateUtc></StartTime><FrequencyChanges><FrequencyChange><Frequency dt:dt="r8">2327520000</Frequency><Timestamp dt:dt="r8">315895328378</Timestamp><Current dt:dt="r8">0</Current><DateUtc dt:dt="string">2014-11-12T17:56:26Z</DateUtc></FrequencyChange></FrequencyChanges></Clock>\n,v4_BCL_f0_g-8-1,60.001,1.0.0.227,1,-1471148702,2.0.10.242,2.0.10.242,11-12-2014,11/12/2014 5:56:26 PM,12:56:26,2.0.10.147,112,,,,,,58,1,58,,,,1,,,g,,0.251,,,9.46,,,31.31,,,,,,TrialProc1,,,,vowel 1,vowel 2,2,267,318259,Block2,g1_f0_9_46_f2_31_31_dur_0_251_num_229.wav,,,,
v4_BCL_f0_g,8,1,<?xml version="1.0"?>\n<Clock xmlns:dt="urn:schemas-microsoft-com:datatypes"><Description dt:dt="string">E-Prime Primary Realtime Clock</Description><StartTime><Timestamp dt:dt="int">0</Timestamp><DateUtc dt:dt="string">2014-11-12T17:56:26Z</DateUtc></StartTime><FrequencyChanges><FrequencyChange><Frequency dt:dt="r8">2327520000</Frequency><Timestamp dt:dt="r8">315895328378</Timestamp><Current dt:dt="r8">0</Current><DateUtc dt:dt="string">2014-11-12T17:56:26Z</DateUtc></FrequencyChange></FrequencyChanges></Clock>\n,v4_BCL_f0_g-8-1,60.001,1.0.0.227,1,-1471148702,2.0.10.242,2.0.10.242,11-12-2014,11/12/2014 5:56:26 PM,12:56:26,2.0.10.147,113,,,,,,59,1,59,,,,1,,,g,,0.25,,,10.07,,,31.05,,,,,,TrialProc1,,,,vowel 1,vowel 2,2,227,319302,Block2,g1_f0_10_07_f2_31_05_dur_0_250_num_299.wav,,,,
v4_BCL_f0_g,8,1,<?xml version="1.0"?>\n<Clock xmlns:dt="urn:schemas-microsoft-com:datatypes"><Description dt:dt="string">E-Prime Primary Realtime Clock</Description><StartTime><Timestamp dt:dt="int">0</Timestamp><DateUtc dt:dt="string">2014-11-12T17:56:26Z</DateUtc></StartTime><FrequencyChanges><FrequencyChange><Frequency dt:dt="r8">2327520000</Frequency><Timestamp dt:dt="r8">315895328378</Timestamp><Current dt:dt="r8">0</Current><DateUtc dt:dt="string">2014-11-12T17:56:26Z</DateUtc></FrequencyChange></FrequencyChanges></Clock>\n,v4_BCL_f0_g-8-1,60.001,1.0.0.227,1,-1471148702,2.0.10.242,2.0.10.242,11-12-2014,11/12/2014 5:56:26 PM,12:56:26,2.0.10.147,114,,,,,,60,1,60,,,,2,,,g,,0.25,,,8.33,,,29.87,,,,,,TrialProc1,,,,vowel 1,vowel 2,1,87,320196,Block2,g2_f0_8_33_f2_29_87_dur_0_250_num_580.wav,,,,
v4_BCL_f0_g,8,1,<?xml version="1.0"?>\n<Clock xmlns:dt="urn:schemas-microsoft-com:datatypes"><Description dt:dt="string">E-Prime Primary Realtime Clock</Description><StartTime><Timestamp dt:dt="int">0</Timestamp><DateUtc dt:dt="string">2014-11-12T17:56:26Z</DateUtc></StartTime><FrequencyChanges><FrequencyChange><Frequency dt:dt="r8">2327520000</Frequency><Timestamp dt:dt="r8">315895328378</Timestamp><Current dt:dt="r8">0</Current><DateUtc dt:dt="string">2014-11-12T17:56:26Z</DateUtc></FrequencyChange></FrequencyChanges></Clock>\n,v4_BCL_f0_g-8-1,60.001,1.0.0.227,1,-1471148702,2.0.10.242,2.0.10.242,11-12-2014,11/12/2014 5:56:26 PM,12:56:26,2.0.10.147,115,,,,,,61,1,61,,,,2,,,g,,0.25,,,7.59,,,30.57,,,,,,TrialProc1,,,,vowel 1,vowel 2,1,189,321198,Block2,g2_f0_7_59_f2_30_57_dur_0_250_num_541.wav,,,,
v4_BCL_f0_g,8,1,<?xml version="1.0"?>\n<Clock xmlns:dt="urn:schemas-microsoft-com:datatypes"><Description dt:dt="string">E-Prime Primary Realtime Clock</Description><StartTime><Timestamp dt:dt="int">0</Timestamp><DateUtc dt:dt="string">2014-11-12T17:56:26Z</DateUtc></StartTime><FrequencyChanges><FrequencyChange><Frequency dt:dt="r8">2327520000</Frequency><Timestamp dt:dt="r8">315895328378</Timestamp><Current dt:dt="r8">0</Current><DateUtc dt:dt="string">2014-11-12T17:56:26Z</DateUtc></FrequencyChange></FrequencyChanges></Clock>\n,v4_BCL_f0_g-8-1,60.001,1.0.0.227,1,-1471148702,2.0.10.242,2.0.10.242,11-12-2014,11/12/2014 5:56:26 PM,12:56:26,2.0.10.147,116,,,,,,62,1,62,,,,1,,,g,,0.249,,,10.38,,,29.22,,,,,,TrialProc1,,,,vowel 1,vowel 2,2,64,322073,Block2,g1_f0_10_38_f2_29_22_dur_0_249_num_279.wav,,,,
v4_BCL_f0_g,8,1,<?xml version="1.0"?>\n<Clock xmlns:dt="urn:schemas-microsoft-com:datatypes"><Description dt:dt="string">E-Prime Primary Realtime Clock</Description><StartTime><Timestamp dt:dt="int">0</Timestamp><DateUtc dt:dt="string">2014-11-12T17:56:26Z</DateUtc></StartTime><FrequencyChanges><FrequencyChange><Frequency dt:dt="r8">2327520000</Frequency><Timestamp dt:dt="r8">315895328378</Timestamp><Current dt:dt="r8">0</Current><DateUtc dt:dt="string">2014-11-12T17:56:26Z</DateUtc></FrequencyChange></FrequencyChanges></Clock>\n,v4_BCL_f0_g-8-1,60.001,1.0.0.227,1,-1471148702,2.0.10.242,2.0.10.242,11-12-2014,11/12/2014 5:56:26 PM,12:56:26,2.0.10.147,117,,,,,,63,1,63,,,,1,,,g,,0.256,,,10.18,,,29.74,,,,,,TrialProc1,,,,vowel 1,vowel 2,2,137,323029,Block2,g1_f0_10_18_f2_29_74_dur_0_256_num_207.wav,,,,
v4_BCL_f0_g,8,1,<?xml version="1.0"?>\n<Clock xmlns:dt="urn:schemas-microsoft-com:datatypes"><Description dt:dt="string">E-Prime Primary Realtime Clock</Description><StartTime><Timestamp dt:dt="int">0</Timestamp><DateUtc dt:dt="string">2014-11-12T17:56:26Z</DateUtc></StartTime><FrequencyChanges><FrequencyChange><Frequency dt:dt="r8">2327520000</Frequency><Timestamp dt:dt="r8">315895328378</Timestamp><Current dt:dt="r8">0</Current><DateUtc dt:dt="string">2014-11-12T17:56:26Z</DateUtc></FrequencyChange></FrequencyChanges></Clock>\n,v4_BCL_f0_g-8-1,60.001,1.0.0.227,1,-1471148702,2.0.10.242,2.0.10.242,11-12-2014,11/12/2014 5:56:26 PM,12:56:26,2.0.10.147,118,,,,,,64,1,64,,,,2,,,g,,0.246,,,8.55,,,29.77,,,,,,TrialProc1,,,,vowel 1,vowel 2,,0,0,Block2,g2_f0_8_55_f2_29_77_dur_0_246_num_527.wav,,,,
v4_BCL_f0_g,8,1,<?xml version="1.0"?>\n<Clock xmlns:dt="urn:schemas-microsoft-com:datatypes"><Description dt:dt="string">E-Prime Primary Realtime Clock</Description><StartTime><Timestamp dt:dt="int">0</Timestamp><DateUtc dt:dt="string">2014-11-12T17:56:26Z</DateUtc></StartTime><FrequencyChanges><FrequencyChange><Frequency dt:dt="r8">2327520000</Frequency><Timestamp dt:dt="r8">315895328378</Timestamp><Current dt:dt="r8">0</Current><DateUtc dt:dt="string">2014-11-12T17:56:26Z</DateUtc></FrequencyChange></FrequencyChanges></Clock>\n,v4_BCL_f0_g-8-1,60.001,1.0.0.227,1,-1471148702,2.0.10.242,2.0.10.242,11-12-2014,11/12/2014 5:56:26 PM,12:56:26,2.0.10.147,119,,,,,,65,1,65,,,,1,,,g,,0.252,,,11.45,,,29.1,,,,,,TrialProc1,,,,vowel 1,vowel 2,2,270,326412,Block2,g1_f0_11_45_f2_29_10_dur_0_252_num_222.wav,,,,
v4_BCL_f0_g,8,1,<?xml version="1.0"?>\n<Clock xmlns:dt="urn:schemas-microsoft-com:datatypes"><Description dt:dt="string">E-Prime Primary Realtime Clock</Description><StartTime><Timestamp dt:dt="int">0</Timestamp><DateUtc dt:dt="string">2014-11-12T17:56:26Z</DateUtc></StartTime><FrequencyChanges><FrequencyChange><Frequency dt:dt="r8">2327520000</Frequency><Timestamp dt:dt="r8">315895328378</Timestamp><Current dt:dt="r8">0</Current><DateUtc dt:dt="string">2014-11-12T17:56:26Z</DateUtc></FrequencyChange></FrequencyChanges></Clock>\n,v4_BCL_f0_g-8-1,60.001,1.0.0.227,1,-1471148702,2.0.10.242,2.0.10.242,11-12-2014,11/12/2014 5:56:26 PM,12:56:26,2.0.10.147,120,,,,,,66,1,66,,,,1,,,g,,0.244,,,9.3,,,31.23,,,,,,TrialProc1,,,,vowel 1,vowel 2,1,118,327343,Block2,g1_f0_9_30_f2_31_23_dur_0_244_num_243.wav,,,,
v4_BCL_f0_g,8,1,<?xml version="1.0"?>\n<Clock xmlns:dt="urn:schemas-microsoft-com:datatypes"><Description dt:dt="string">E-Prime Primary Realtime Clock</Description><StartTime><Timestamp dt:dt="int">0</Timestamp><DateUtc dt:dt="string">2014-11-12T17:56:26Z</DateUtc></StartTime><FrequencyChanges><FrequencyChange><Frequency dt:dt="r8">2327520000</Frequency><Timestamp dt:dt="r8">315895328378</Timestamp><Current dt:dt="r8">0</Current><DateUtc dt:dt="string">2014-11-12T17:56:26Z</DateUtc></FrequencyChange></FrequencyChanges></Clock>\n,v4_BCL_f0_g-8-1,60.001,1.0.0.227,1,-1471148702,2.0.10.242,2.0.10.242,11-12-2014,11/12/2014 5:56:26 PM,12:56:26,2.0.10.147,121,,,,,,67,1,67,,,,2,,,g,,0.249,,,9.09,,,28.76,,,,,,TrialProc1,,,,vowel 1,vowel 2,1,269,328428,Block2,g2_f0_9_09_f2_28_76_dur_0_249_num_549.wav,,,,
v4_BCL_f0_g,8,1,<?xml version="1.0"?>\n<Clock xmlns:dt="urn:schemas-microsoft-com:datatypes"><Description dt:dt="string">E-Prime Primary Realtime Clock</Description><StartTime><Timestamp dt:dt="int">0</Timestamp><DateUtc dt:dt="string">2014-11-12T17:56:26Z</DateUtc></StartTime><FrequencyChanges><FrequencyChange><Frequency dt:dt="r8">2327520000</Frequency><Timestamp dt:dt="r8">315895328378</Timestamp><Current dt:dt="r8">0</Current><DateUtc dt:dt="string">2014-11-12T17:56:26Z</DateUtc></FrequencyChange></FrequencyChanges></Clock>\n,v4_BCL_f0_g-8-1,60.001,1.0.0.227,1,-1471148702,2.0.10.242,2.0.10.242,11-12-2014,11/12/2014 5:56:26 PM,12:56:26,2.0.10.147,122,,,,,,68,1,68,,,,1,,,g,,0.252,,,9.2,,,30.96,,,,,,TrialProc1,,,,vowel 1,vowel 2,1,336,329578,Block2,g1_f0_9_20_f2_30_96_dur_0_252_num_232.wav,,,,
v4_BCL_f0_g,8,1,<?xml version="1.0"?>\n<Clock xmlns:dt="urn:schemas-microsoft-com:datatypes"><Description dt:dt="string">E-Prime Primary Realtime Clock</Description><StartTime><Timestamp dt:dt="int">0</Timestamp><DateUtc dt:dt="string">2014-11-12T17:56:26Z</DateUtc></StartTime><FrequencyChanges><FrequencyChange><Frequency dt:dt="r8">2327520000</Frequency><Timestamp dt:dt="r8">315895328378</Timestamp><Current dt:dt="r8">0</Current><DateUtc dt:dt="string">2014-11-12T17:56:26Z</DateUtc></FrequencyChange></FrequencyChanges></Clock>\n,v4_BCL_f0_g-8-1,60.001,1.0.0.227,1,-1471148702,2.0.10.242,2.0.10.242,11-12-2014,11/12/2014 5:56:26 PM,12:56:26,2.0.10.147,123,,,,,,69,1,69,,,,1,,,g,,0.247,,,9.92,,,29.83,,,,,,TrialProc1,,,,vowel 1,vowel 2,2,156,330548,Block2,g1_f0_9_92_f2_29_83_dur_0_247_num_220.wav,,,,
v4_BCL_f0_g,8,1,<?xml version="1.0"?>\n<Clock xmlns:dt="urn:schemas-microsoft-com:datatypes"><Description dt:dt="string">E-Prime Primary Realtime Clock</Description><StartTime><Timestamp dt:dt="int">0</Timestamp><DateUtc dt:dt="string">2014-11-12T17:56:26Z</DateUtc></StartTime><FrequencyChanges><FrequencyChange><Frequency dt:dt="r8">2327520000</Frequency><Timestamp dt:dt="r8">315895328378</Timestamp><Current dt:dt="r8">0</Current><DateUtc dt:dt="string">2014-11-12T17:56:26Z</DateUtc></FrequencyChange></FrequencyChanges></Clock>\n,v4_BCL_f0_g-8-1,60.001,1.0.0.227,1,-1471148702,2.0.10.242,2.0.10.242,11-12-2014,11/12/2014 5:56:26 PM,12:56:26,2.0.10.147,124,,,,,,70,1,70,,,,1,,,g,,0.251,,,10.15,,,30.18,,,,,,TrialProc1,,,,vowel 1,vowel 2,2,159,331518,Block2,g1_f0_10_15_f2_30_18_dur_0_251_num_240.wav,,,,
