ExperimentName,Subject,Session,Clock.Information,DataFile.Basename,Display.RefreshRate,ExperimentVersion,Group,RandomSeed,RuntimeVersion,RuntimeVersionExpected,SessionDate,SessionStartDateTimeUtc,SessionTime,StudioVersion,Block,A,B,Block1,Block1.Cycle,Block1.Sample,Block2,Block2.Cycle,Block2.Sample,Block3,Block3.Cycle,Block3.Sample,cat,catA,catB,cons,correct_resp,dur,durA,durB,f0,f0A,f0B,f2,f2A,f2B,PracticeList,PracticeList.Cycle,PracticeList.Sample,Procedure,resp.CRESP,resp.RESP,resp.RT,resp1,resp2,respond.RESP,respond.RT,respond.RTTime,Running,soundfile,testList,testList.Cycle,testList.Sample,X
v4_BCL_f2_g,13,1,<?xml version="1.0"?>\n<Clock xmlns:dt="urn:schemas-microsoft-com:datatypes"><Description dt:dt="string">E-Prime Primary Realtime Clock</Description><StartTime><Timestamp dt:dt="int">0</Timestamp><DateUtc dt:dt="string">2015-02-12T16:01:28Z</DateUtc></StartTime><FrequencyChanges><FrequencyChange><Frequency dt:dt="r8">2327520000</Frequency><Timestamp dt:dt="r8">1635555120822</Timestamp><Current dt:dt="r8">0</Current><DateUtc dt:dt="string">2015-02-12T16:01:28Z</DateUtc></FrequencyChange></FrequencyChanges></Clock>\n,v4_BCL_f2_g-13-1,60.001,1.0.0.238,1,-359777857,2.0.10.242,2.0.10.242,02-12-2015,2/12/2015 4:01:28 PM,11:01:28,2.0.10.147,1,,,,,,,,,,,,NA,,,NA,,NA,,,NA,,,NA,,,6,1,1,PracProc,,,,vowel 1,vowel 2,1,1196,213815,PracticeList,say.wav,,,,
v4_BCL_f2_g,13,1,<?xml version="1.0"?>\n<Clock xmlns:dt="urn:schemas-microsoft-com:datatypes"><Description dt:dt="string">E-Prime Primary Realtime Clock</Description><StartTime><Timestamp dt:dt="int">0</Timestamp><DateUtc dt:dt="string">2015-02-12T16:01:28Z</DateUtc></StartTime><FrequencyChanges><FrequencyChange><Frequency dt:dt="r8">2327520000</Frequency><Timestamp dt:dt="r8">1635555120822</Timestamp><Current dt:dt="r8">0</Current><DateUtc dt:dt="string">2015-02-12T16:01:28Z</DateUtc></FrequencyChange></FrequencyChanges></Clock>\n,v4_BCL_f2_g-13-1,60.001,1.0.0.238,1,-359777857,2.0.10.242,2.0.10.242,02-12-2015,2/12/2015 4:01:28 PM,11:01:28,2.0.10.147,2,,,,,,,,,,,,NA,,,NA,,NA,,,NA,,,NA,,,3,1,2,PracProc,,,,vowel 1,vowel 2,2,434,215170,PracticeList,tea.wav,,,,
v4_BCL_f2_g,13,1,<?xml version="1.0"?>\n<Clock xmlns:dt="urn:schemas-microsoft-com:datatypes"><Description dt:dt="string">E-Prime Primary Realtime Clock</Description><StartTime><Timestamp dt:dt="int">0</Timestamp><DateUtc dt:dt="string">2015-02-12T16:01:28Z</DateUtc></StartTime><FrequencyChanges><FrequencyChange><Frequency dt:dt="r8">2327520000</Frequency><Timestamp dt:dt="r8">1635555120822</Timestamp><Current dt:dt="r8">0</Current><DateUtc dt:dt="string">2015-02-12T16:01:28Z</DateUtc></FrequencyChange></FrequencyChanges></Clock>\n,v4_BCL_f2_g-13-1,60.001,1.0.0.238,1,-359777857,2.0.10.242,2.0.10.242,02-12-2015,2/12/2015 4:01:28 PM,11:01:28,2.0.10.147,3,,,,,,,,,,,,NA,,,NA,,NA,,,NA,,,NA,,,1,1,3,PracProc,,,,vowel 1,vowel 2,2,788,216874,PracticeList,key.wav,,,,
v4_BCL_f2_g,13,1,<?xml version="1.0"?>\n<Clock xmlns:dt="urn:schemas-microsoft-com:datatypes"><Description dt:dt="string">E-Prime Primary Realtime Clock</Description><StartTime><Timestamp dt:dt="int">0</Timestamp><DateUtc dt:dt="string">2015-02-12T16:01:28Z</DateUtc></StartTime><FrequencyChanges><FrequencyChange><Frequency dt:dt="r8">2327520000</Frequency><Timestamp dt:dt="r8">1635555120822</Timestamp><Current dt:dt="r8">0</Current><DateUtc dt:dt="string">2015-02-12T16:01:28Z</DateUtc></FrequencyChange></FrequencyChanges></Clock>\n,v4_BCL_f2_g-13-1,60.001,1.0.0.238,1,-359777857,2.0.10.242,2.0.10.242,02-12-2015,2/12/2015 4:01:28 PM,11:01:28,2.0.10.147,4,,,,,,,,,,,,NA,,,NA,,NA,,,NA,,,NA,,,4,1,4,PracProc,,,,vowel 1,vowel 2,1,368,218170,PracticeList,tay.wav,,,,
v4_BCL_f2_g,13,1,<?xml version="1.0"?>\n<Clock xmlns:dt="urn:schemas-microsoft-com:datatypes"><Description dt:dt="string">E-Prime Primary Realtime Clock</Description><StartTime><Timestamp dt:dt="int">0</Timestamp><DateUtc dt:dt="string">2015-02-12T16:01:28Z</DateUtc></StartTime><FrequencyChanges><FrequencyChange><Frequency dt:dt="r8">2327520000</Frequency><Timestamp dt:dt="r8">1635555120822</Timestamp><Current dt:dt="r8">0</Current><DateUtc dt:dt="string">2015-02-12T16:01:28Z</DateUtc></FrequencyChange></FrequencyChanges></Clock>\n,v4_BCL_f2_g-13-1,60.001,1.0.0.238,1,-359777857,2.0.10.242,2.0.10.242,02-12-2015,2/12/2015 4:01:28 PM,11:01:28,2.0.10.147,5,,,,,,,,,,,,NA,,,NA,,NA,,,NA,,,NA,,,2,1,5,PracProc,,,,vowel 1,vowel 2,2,421,219523,PracticeList,kay.wav,,,,
v4_BCL_f2_g,13,1,<?xml version="1.0"?>\n<Clock xmlns:dt="urn:schemas-microsoft-com:datatypes"><Description dt:dt="string">E-Prime Primary Realtime Clock</Description><StartTime><Timestamp dt:dt="int">0</Timestamp><DateUtc dt:dt="string">2015-02-12T16:01:28Z</DateUtc></StartTime><FrequencyChanges><FrequencyChange><Frequency dt:dt="r8">2327520000</Frequency><Timestamp dt:dt="r8">1635555120822</Timestamp><Current dt:dt="r8">0</Current><DateUtc dt:dt="string">2015-02-12T16:01:28Z</DateUtc></FrequencyChange></FrequencyChanges></Clock>\n,v4_BCL_f2_g-13-1,60.001,1.0.0.238,1,-359777857,2.0.10.242,2.0.10.242,02-12-2015,2/12/2015 4:01:28 PM,11:01:28,2.0.10.147,6,,,,,,,,,,,,NA,,,NA,,NA,,,NA,,,NA,,,5,1,6,PracProc,,,,vowel 1,vowel 2,1,247,220699,PracticeList,see.wav,,,,
v4_BCL_f2_g,13,1,<?xml version="1.0"?>\n<Clock xmlns:dt="urn:schemas-microsoft-com:datatypes"><Description dt:dt="string">E-Prime Primary Realtime Clock</Description><StartTime><Timestamp dt:dt="int">0</Timestamp><DateUtc dt:dt="string">2015-02-12T16:01:28Z</DateUtc></StartTime><FrequencyChanges><FrequencyChange><Frequency dt:dt="r8">2327520000</Frequency><Timestamp dt:dt="r8">1635555120822</Timestamp><Current dt:dt="r8">0</Current><DateUtc dt:dt="string">2015-02-12T16:01:28Z</DateUtc></FrequencyChange></FrequencyChanges></Clock>\n,v4_BCL_f2_g-13-1,60.001,1.0.0.238,1,-359777857,2.0.10.242,2.0.10.242,02-12-2015,2/12/2015 4:01:28 PM,11:01:28,2.0.10.147,7,,,,,,,,,,,,NA,,,NA,,NA,,,NA,,,NA,,,2,2,7,PracProc,,,,vowel 1,vowel 2,2,239,221841,PracticeList,kay.wav,,,,
v4_BCL_f2_g,13,1,<?xml version="1.0"?>\n<Clock xmlns:dt="urn:schemas-microsoft-com:datatypes"><Description dt:dt="string">E-Prime Primary Realtime Clock</Description><StartTime><Timestamp dt:dt="int">0</Timestamp><DateUtc dt:dt="string">2015-02-12T16:01:28Z</DateUtc></StartTime><FrequencyChanges><FrequencyChange><Frequency dt:dt="r8">2327520000</Frequency><Timestamp dt:dt="r8">1635555120822</Timestamp><Current dt:dt="r8">0</Current><DateUtc dt:dt="string">2015-02-12T16:01:28Z</DateUtc></FrequencyChange></FrequencyChanges></Clock>\n,v4_BCL_f2_g-13-1,60.001,1.0.0.238,1,-359777857,2.0.10.242,2.0.10.242,02-12-2015,2/12/2015 4:01:28 PM,11:01:28,2.0.10.147,8,,,,,,,,,,,,NA,,,NA,,NA,,,NA,,,NA,,,6,2,8,PracProc,,,,vowel 1,vowel 2,2,828,223580,PracticeList,say.wav,,,,
v4_BCL_f2_g,13,1,<?xml version="1.0"?>\n<Clock xmlns:dt="urn:schemas-microsoft-com:datatypes"><Description dt:dt="string">E-Prime Primary Realtime Clock</Description><StartTime><Timestamp dt:dt="int">0</Timestamp><DateUtc dt:dt="string">2015-02-12T16:01:28Z</DateUtc></StartTime><FrequencyChanges><FrequencyChange><Frequency dt:dt="r8">2327520000</Frequency><Timestamp dt:dt="r8">1635555120822</Timestamp><Current dt:dt="r8">0</Current><DateUtc dt:dt="string">2015-02-12T16:01:28Z</DateUtc></FrequencyChange></FrequencyChanges></Clock>\n,v4_BCL_f2_g-13-1,60.001,1.0.0.238,1,-359777857,2.0.10.242,2.0.10.242,02-12-2015,2/12/2015 4:01:28 PM,11:01:28,2.0.10.147,9,,,,,,,,,,,,NA,,,NA,,NA,,,NA,,,NA,,,4,2,9,PracProc,,,,vowel 1,vowel 2,2,418,224920,PracticeList,tay.wav,,,,
v4_BCL_f2_g,13,1,<?xml version="1.0"?>\n<Clock xmlns:dt="urn:schemas-microsoft-com:datatypes"><Description dt:dt="string">E-Prime Primary Realtime Clock</Description><StartTime><Timestamp dt:dt="int">0</Timestamp><DateUtc dt:dt="string">2015-02-12T16:01:28Z</DateUtc></StartTime><FrequencyChanges><FrequencyChange><Frequency dt:dt="r8">2327520000</Frequency><Timestamp dt:dt="r8">1635555120822</Timestamp><Current dt:dt="r8">0</Current><DateUtc dt:dt="string">2015-02-12T16:01:28Z</DateUtc></FrequencyChange></FrequencyChanges></Clock>\n,v4_BCL_f2_g-13-1,60.001,1.0.0.238,1,-359777857,2.0.10.242,2.0.10.242,02-12-2015,2/12/2015 4:01:28 PM,11:01:28,2.0.10.147,10,,,,,,,,,,,,NA,,,NA,,NA,,,NA,,,NA,,,5,2,10,PracProc,,,,vowel 1,vowel 2,1,529,226364,PracticeList,see.wav,,,,
v4_BCL_f2_g,13,1,<?xml version="1.0"?>\n<Clock xmlns:dt="urn:schemas-microsoft-com:datatypes"><Description dt:dt="string">E-Prime Primary Realtime Clock</Description><StartTime><Timestamp dt:dt="int">0</Timestamp><DateUtc dt:dt="string">2015-02-12T16:01:28Z</DateUtc></StartTime><FrequencyChanges><FrequencyChange><Frequency dt:dt="r8">2327520000</Frequency><Timestamp dt:dt="r8">1635555120822</Timestamp><Current dt:dt="r8">0</Current><DateUtc dt:dt="string">2015-02-12T16:01:28Z</DateUtc></FrequencyChange></FrequencyChanges></Clock>\n,v4_BCL_f2_g-13-1,60.001,1.0.0.238,1,-359777857,2.0.10.242,2.0.10.242,02-12-2015,2/12/2015 4:01:28 PM,11:01:28,2.0.10.147,11,,,,,,,,,,,,NA,,,NA,,NA,,,NA,,,NA,,,1,2,11,PracProc,,,,vowel 1,vowel 2,1,438,227723,PracticeList,key.wav,,,,
v4_BCL_f2_g,13,1,<?xml version="1.0"?>\n<Clock xmlns:dt="urn:schemas-microsoft-com:datatypes"><Description dt:dt="string">E-Prime Primary Realtime Clock</Description><StartTime><Timestamp dt:dt="int">0</Timestamp><DateUtc dt:dt="string">2015-02-12T16:01:28Z</DateUtc></StartTime><FrequencyChanges><FrequencyChange><Frequency dt:dt="r8">2327520000</Frequency><Timestamp dt:dt="r8">1635555120822</Timestamp><Current dt:dt="r8">0</Current><DateUtc dt:dt="string">2015-02-12T16:01:28Z</DateUtc></FrequencyChange></FrequencyChanges></Clock>\n,v4_BCL_f2_g-13-1,60.001,1.0.0.238,1,-359777857,2.0.10.242,2.0.10.242,02-12-2015,2/12/2015 4:01:28 PM,11:01:28,2.0.10.147,12,,,,,,,,,,,,NA,,,NA,,NA,,,NA,,,NA,,,3,2,12,PracProc,,,,vowel 1,vowel 2,1,423,229058,PracticeList,tea.wav,,,,
v4_BCL_f2_g,13,1,<?xml version="1.0"?>\n<Clock xmlns:dt="urn:schemas-microsoft-com:datatypes"><Description dt:dt="string">E-Prime Primary Realtime Clock</Description><StartTime><Timestamp dt:dt="int">0</Timestamp><DateUtc dt:dt="string">2015-02-12T16:01:28Z</DateUtc></StartTime><FrequencyChanges><FrequencyChange><Frequency dt:dt="r8">2327520000</Frequency><Timestamp dt:dt="r8">1635555120822</Timestamp><Current dt:dt="r8">0</Current><DateUtc dt:dt="string">2015-02-12T16:01:28Z</DateUtc></FrequencyChange></FrequencyChanges></Clock>\n,v4_BCL_f2_g-13-1,60.001,1.0.0.238,1,-359777857,2.0.10.242,2.0.10.242,02-12-2015,2/12/2015 4:01:28 PM,11:01:28,2.0.10.147,13,,,,,,,,,,,,NA,,,NA,,NA,,,NA,,,NA,,,4,3,13,PracProc,,,,vowel 1,vowel 2,2,483,230452,PracticeList,tay.wav,,,,
v4_BCL_f2_g,13,1,<?xml version="1.0"?>\n<Clock xmlns:dt="urn:schemas-microsoft-com:datatypes"><Description dt:dt="string">E-Prime Primary Realtime Clock</Description><StartTime><Timestamp dt:dt="int">0</Timestamp><DateUtc dt:dt="string">2015-02-12T16:01:28Z</DateUtc></StartTime><FrequencyChanges><FrequencyChange><Frequency dt:dt="r8">2327520000</Frequency><Timestamp dt:dt="r8">1635555120822</Timestamp><Current dt:dt="r8">0</Current><DateUtc dt:dt="string">2015-02-12T16:01:28Z</DateUtc></FrequencyChange></FrequencyChanges></Clock>\n,v4_BCL_f2_g-13-1,60.001,1.0.0.238,1,-359777857,2.0.10.242,2.0.10.242,02-12-2015,2/12/2015 4:01:28 PM,11:01:28,2.0.10.147,14,,,,,,,,,,,,NA,,,NA,,NA,,,NA,,,NA,,,6,3,14,PracProc,,,,vowel 1,vowel 2,2,492,231861,PracticeList,say.wav,,,,
v4_BCL_f2_g,13,1,<?xml version="1.0"?>\n<Clock xmlns:dt="urn:schemas-microsoft-com:datatypes"><Description dt:dt="string">E-Prime Primary Realtime Clock</Description><StartTime><Timestamp dt:dt="int">0</Timestamp><DateUtc dt:dt="string">2015-02-12T16:01:28Z</DateUtc></StartTime><FrequencyChanges><FrequencyChange><Frequency dt:dt="r8">2327520000</Frequency><Timestamp dt:dt="r8">1635555120822</Timestamp><Current dt:dt="r8">0</Current><DateUtc dt:dt="string">2015-02-12T16:01:28Z</DateUtc></FrequencyChange></FrequencyChanges></Clock>\n,v4_BCL_f2_g-13-1,60.001,1.0.0.238,1,-359777857,2.0.10.242,2.0.10.242,02-12-2015,2/12/2015 4:01:28 PM,11:01:28,2.0.10.147,15,,,,,,,,,,,,NA,,,NA,,NA,,,NA,,,NA,,,2,3,15,PracProc,,,,vowel 1,vowel 2,2,398,233183,PracticeList,kay.wav,,,,
v4_BCL_f2_g,13,1,<?xml version="1.0"?>\n<Clock xmlns:dt="urn:schemas-microsoft-com:datatypes"><Description dt:dt="string">E-Prime Primary Realtime Clock</Description><StartTime><Timestamp dt:dt="int">0</Timestamp><DateUtc dt:dt="string">2015-02-12T16:01:28Z</DateUtc></StartTime><FrequencyChanges><FrequencyChange><Frequency dt:dt="r8">2327520000</Frequency><Timestamp dt:dt="r8">1635555120822</Timestamp><Current dt:dt="r8">0</Current><DateUtc dt:dt="string">2015-02-12T16:01:28Z</DateUtc></FrequencyChange></FrequencyChanges></Clock>\n,v4_BCL_f2_g-13-1,60.001,1.0.0.238,1,-359777857,2.0.10.242,2.0.10.242,02-12-2015,2/12/2015 4:01:28 PM,11:01:28,2.0.10.147,16,,,,,,,,,,,,NA,,,NA,,NA,,,NA,,,NA,,,3,3,16,PracProc,,,,vowel 1,vowel 2,1,607,234709,PracticeList,tea.wav,,,,
v4_BCL_f2_g,13,1,<?xml version="1.0"?>\n<Clock xmlns:dt="urn:schemas-microsoft-com:datatypes"><Description dt:dt="string">E-Prime Primary Realtime Clock</Description><StartTime><Timestamp dt:dt="int">0</Timestamp><DateUtc dt:dt="string">2015-02-12T16:01:28Z</DateUtc></StartTime><FrequencyChanges><FrequencyChange><Frequency dt:dt="r8">2327520000</Frequency><Timestamp dt:dt="r8">1635555120822</Timestamp><Current dt:dt="r8">0</Current><DateUtc dt:dt="string">2015-02-12T16:01:28Z</DateUtc></FrequencyChange></FrequencyChanges></Clock>\n,v4_BCL_f2_g-13-1,60.001,1.0.0.238,1,-359777857,2.0.10.242,2.0.10.242,02-12-2015,2/12/2015 4:01:28 PM,11:01:28,2.0.10.147,17,,,,,,,,,,,,NA,,,NA,,NA,,,NA,,,NA,,,5,3,17,PracProc,,,,vowel 1,vowel 2,1,502,236121,PracticeList,see.wav,,,,
v4_BCL_f2_g,13,1,<?xml version="1.0"?>\n<Clock xmlns:dt="urn:schemas-microsoft-com:datatypes"><Description dt:dt="string">E-Prime Primary Realtime Clock</Description><StartTime><Timestamp dt:dt="int">0</Timestamp><DateUtc dt:dt="string">2015-02-12T16:01:28Z</DateUtc></StartTime><FrequencyChanges><FrequencyChange><Frequency dt:dt="r8">2327520000</Frequency><Timestamp dt:dt="r8">1635555120822</Timestamp><Current dt:dt="r8">0</Current><DateUtc dt:dt="string">2015-02-12T16:01:28Z</DateUtc></FrequencyChange></FrequencyChanges></Clock>\n,v4_BCL_f2_g-13-1,60.001,1.0.0.238,1,-359777857,2.0.10.242,2.0.10.242,02-12-2015,2/12/2015 4:01:28 PM,11:01:28,2.0.10.147,18,,,,,,,,,,,,NA,,,NA,,NA,,,NA,,,NA,,,1,3,18,PracProc,,,,vowel 1,vowel 2,1,594,237629,PracticeList,key.wav,,,,
v4_BCL_f2_g,13,1,<?xml version="1.0"?>\n<Clock xmlns:dt="urn:schemas-microsoft-com:datatypes"><Description dt:dt="string">E-Prime Primary Realtime Clock</Description><StartTime><Timestamp dt:dt="int">0</Timestamp><DateUtc dt:dt="string">2015-02-12T16:01:28Z</DateUtc></StartTime><FrequencyChanges><FrequencyChange><Frequency dt:dt="r8">2327520000</Frequency><Timestamp dt:dt="r8">1635555120822</Timestamp><Current dt:dt="r8">0</Current><DateUtc dt:dt="string">2015-02-12T16:01:28Z</DateUtc></FrequencyChange></FrequencyChanges></Clock>\n,v4_BCL_f2_g-13-1,60.001,1.0.0.238,1,-359777857,2.0.10.242,2.0.10.242,02-12-2015,2/12/2015 4:01:28 PM,11:01:28,2.0.10.147,19,,,2,1,1,,,,,,,2,,,b,,0.254,,,9.81,,,28.59,,,,,,ExposureProc,,,,vowel 1,vowel 2,,,,Block1,b2_f0_9_81_f2_28_59_dur_0_254_num_375.wav,,,,
v4_BCL_f2_g,13,1,<?xml version="1.0"?>\n<Clock xmlns:dt="urn:schemas-microsoft-com:datatypes"><Description dt:dt="string">E-Prime Primary Realtime Clock</Description><StartTime><Timestamp dt:dt="int">0</Timestamp><DateUtc dt:dt="string">2015-02-12T16:01:28Z</DateUtc></StartTime><FrequencyChanges><FrequencyChange><Frequency dt:dt="r8">2327520000</Frequency><Timestamp dt:dt="r8">1635555120822</Timestamp><Current dt:dt="r8">0</Current><DateUtc dt:dt="string">2015-02-12T16:01:28Z</DateUtc></FrequencyChange></FrequencyChanges></Clock>\n,v4_BCL_f2_g-13-1,60.001,1.0.0.238,1,-359777857,2.0.10.242,2.0.10.242,02-12-2015,2/12/2015 4:01:28 PM,11:01:28,2.0.10.147,20,,,30,1,2,,,,,,,1,,,g,,0.255,,,9.68,,,29.92,,,,,,ExposureProc,,,,vowel 1,vowel 2,,,,Block1,g1_f0_9_68_f2_29_92_dur_0_255_num_216.wav,,,,
v4_BCL_f2_g,13,1,<?xml version="1.0"?>\n<Clock xmlns:dt="urn:schemas-microsoft-com:datatypes"><Description dt:dt="string">E-Prime Primary Realtime Clock</Description><StartTime><Timestamp dt:dt="int">0</Timestamp><DateUtc dt:dt="string">2015-02-12T16:01:28Z</DateUtc></StartTime><FrequencyChanges><FrequencyChange><Frequency dt:dt="r8">2327520000</Frequency><Timestamp dt:dt="r8">1635555120822</Timestamp><Current dt:dt="r8">0</Current><DateUtc dt:dt="string">2015-02-12T16:01:28Z</DateUtc></FrequencyChange></FrequencyChanges></Clock>\n,v4_BCL_f2_g-13-1,60.001,1.0.0.238,1,-359777857,2.0.10.242,2.0.10.242,02-12-2015,2/12/2015 4:01:28 PM,11:01:28,2.0.10.147,21,,,12,1,3,,,,,,,2,,,b,,0.247,,,8.57,,,30.45,,,,,,ExposureProc,,,,vowel 1,vowel 2,,,,Block1,b2_f0_8_57_f2_30_45_dur_0_247_num_352.wav,,,,
v4_BCL_f2_g,13,1,<?xml version="1.0"?>\n<Clock xmlns:dt="urn:schemas-microsoft-com:datatypes"><Description dt:dt="string">E-Prime Primary Realtime Clock</Description><StartTime><Timestamp dt:dt="int">0</Timestamp><DateUtc dt:dt="string">2015-02-12T16:01:28Z</DateUtc></StartTime><FrequencyChanges><FrequencyChange><Frequency dt:dt="r8">2327520000</Frequency><Timestamp dt:dt="r8">1635555120822</Timestamp><Current dt:dt="r8">0</Current><DateUtc dt:dt="string">2015-02-12T16:01:28Z</DateUtc></FrequencyChange></FrequencyChanges></Clock>\n,v4_BCL_f2_g-13-1,60.001,1.0.0.238,1,-359777857,2.0.10.242,2.0.10.242,02-12-2015,2/12/2015 4:01:28 PM,11:01:28,2.0.10.147,22,,,6,1,4,,,,,,,2,,,b,,0.251,,,9.34,,,28.71,,,,,,ExposureProc,,,,vowel 1,vowel 2,,,,Block1,b2_f0_9_34_f2_28_71_dur_0_251_num_304.wav,,,,
v4_BCL_f2_g,13,1,<?xml version="1.0"?>\n<Clock xmlns:dt="urn:schemas-microsoft-com:datatypes"><Description dt:dt="string">E-Prime Primary Realtime Clock</Description><StartTime><Timestamp dt:dt="int">0</Timestamp><DateUtc dt:dt="string">2015-02-12T16:01:28Z</DateUtc></StartTime><FrequencyChanges><FrequencyChange><Frequency dt:dt="r8">2327520000</Frequency><Timestamp dt:dt="r8">1635555120822</Timestamp><Current dt:dt="r8">0</Current><DateUtc dt:dt="string">2015-02-12T16:01:28Z</DateUtc></FrequencyChange></FrequencyChanges></Clock>\n,v4_BCL_f2_g-13-1,60.001,1.0.0.238,1,-359777857,2.0.10.242,2.0.10.242,02-12-2015,2/12/2015 4:01:28 PM,11:01:28,2.0.10.147,23,,,15,1,5,,,,,,,1,,,d,,0.25,,,9.42,,,30.45,,,,,,ExposureProc,,,,vowel 1,vowel 2,,,,Block1,d1_f0_9_42_f2_30_45_dur_0_250_num_114.wav,,,,
v4_BCL_f2_g,13,1,<?xml version="1.0"?>\n<Clock xmlns:dt="urn:schemas-microsoft-com:datatypes"><Description dt:dt="string">E-Prime Primary Realtime Clock</Description><StartTime><Timestamp dt:dt="int">0</Timestamp><DateUtc dt:dt="string">2015-02-12T16:01:28Z</DateUtc></StartTime><FrequencyChanges><FrequencyChange><Frequency dt:dt="r8">2327520000</Frequency><Timestamp dt:dt="r8">1635555120822</Timestamp><Current dt:dt="r8">0</Current><DateUtc dt:dt="string">2015-02-12T16:01:28Z</DateUtc></FrequencyChange></FrequencyChanges></Clock>\n,v4_BCL_f2_g-13-1,60.001,1.0.0.238,1,-359777857,2.0.10.242,2.0.10.242,02-12-2015,2/12/2015 4:01:28 PM,11:01:28,2.0.10.147,24,,,19,1,6,,,,,,,1,,,d,,0.254,,,9.75,,,30.01,,,,,,ExposureProc,,,,vowel 1,vowel 2,,,,Block1,d1_f0_9_75_f2_30_01_dur_0_254_num_158.wav,,,,
v4_BCL_f2_g,13,1,<?xml version="1.0"?>\n<Clock xmlns:dt="urn:schemas-microsoft-com:datatypes"><Description dt:dt="string">E-Prime Primary Realtime Clock</Description><StartTime><Timestamp dt:dt="int">0</Timestamp><DateUtc dt:dt="string">2015-02-12T16:01:28Z</DateUtc></StartTime><FrequencyChanges><FrequencyChange><Frequency dt:dt="r8">2327520000</Frequency><Timestamp dt:dt="r8">1635555120822</Timestamp><Current dt:dt="r8">0</Current><DateUtc dt:dt="string">2015-02-12T16:01:28Z</DateUtc></FrequencyChange></FrequencyChanges></Clock>\n,v4_BCL_f2_g-13-1,60.001,1.0.0.238,1,-359777857,2.0.10.242,2.0.10.242,02-12-2015,2/12/2015 4:01:28 PM,11:01:28,2.0.10.147,25,,,17,1,7,,,,,,,2,,,d,,0.254,,,9.11,,,29.43,,,,,,ExposureProc,,,,vowel 1,vowel 2,,,,Block1,d2_f0_9_11_f2_29_43_dur_0_254_num_423.wav,,,,
v4_BCL_f2_g,13,1,<?xml version="1.0"?>\n<Clock xmlns:dt="urn:schemas-microsoft-com:datatypes"><Description dt:dt="string">E-Prime Primary Realtime Clock</Description><StartTime><Timestamp dt:dt="int">0</Timestamp><DateUtc dt:dt="string">2015-02-12T16:01:28Z</DateUtc></StartTime><FrequencyChanges><FrequencyChange><Frequency dt:dt="r8">2327520000</Frequency><Timestamp dt:dt="r8">1635555120822</Timestamp><Current dt:dt="r8">0</Current><DateUtc dt:dt="string">2015-02-12T16:01:28Z</DateUtc></FrequencyChange></FrequencyChanges></Clock>\n,v4_BCL_f2_g-13-1,60.001,1.0.0.238,1,-359777857,2.0.10.242,2.0.10.242,02-12-2015,2/12/2015 4:01:28 PM,11:01:28,2.0.10.147,26,,,24,1,8,,,,,,,2,,,d,,0.245,,,9.19,,,29.19,,,,,,ExposureProc,,,,vowel 1,vowel 2,,,,Block1,d2_f0_9_19_f2_29_19_dur_0_245_num_478.wav,,,,
v4_BCL_f2_g,13,1,<?xml version="1.0"?>\n<Clock xmlns:dt="urn:schemas-microsoft-com:datatypes"><Description dt:dt="string">E-Prime Primary Realtime Clock</Description><StartTime><Timestamp dt:dt="int">0</Timestamp><DateUtc dt:dt="string">2015-02-12T16:01:28Z</DateUtc></StartTime><FrequencyChanges><FrequencyChange><Frequency dt:dt="r8">2327520000</Frequency><Timestamp dt:dt="r8">1635555120822</Timestamp><Current dt:dt="r8">0</Current><DateUtc dt:dt="string">2015-02-12T16:01:28Z</DateUtc></FrequencyChange></FrequencyChanges></Clock>\n,v4_BCL_f2_g-13-1,60.001,1.0.0.238,1,-359777857,2.0.10.242,2.0.10.242,02-12-2015,2/12/2015 4:01:28 PM,11:01:28,2.0.10.147,27,,,34,1,9,,,,,,,2,,,g,,0.254,,,9.48,,,29.3,,,,,,ExposureProc,,,,vowel 1,vowel 2,,,,Block1,g2_f0_9_48_f2_29_30_dur_0_254_num_530.wav,,,,
v4_BCL_f2_g,13,1,<?xml version="1.0"?>\n<Clock xmlns:dt="urn:schemas-microsoft-com:datatypes"><Description dt:dt="string">E-Prime Primary Realtime Clock</Description><StartTime><Timestamp dt:dt="int">0</Timestamp><DateUtc dt:dt="string">2015-02-12T16:01:28Z</DateUtc></StartTime><FrequencyChanges><FrequencyChange><Frequency dt:dt="r8">2327520000</Frequency><Timestamp dt:dt="r8">1635555120822</Timestamp><Current dt:dt="r8">0</Current><DateUtc dt:dt="string">2015-02-12T16:01:28Z</DateUtc></FrequencyChange></FrequencyChanges></Clock>\n,v4_BCL_f2_g-13-1,60.001,1.0.0.238,1,-359777857,2.0.10.242,2.0.10.242,02-12-2015,2/12/2015 4:01:28 PM,11:01:28,2.0.10.147,28,,,14,1,10,,,,,,,1,,,d,,0.248,,,10.86,,,29.98,,,,,,ExposureProc,,,,vowel 1,vowel 2,,,,Block1,d1_f0_10_86_f2_29_98_dur_0_248_num_129.wav,,,,
v4_BCL_f2_g,13,1,<?xml version="1.0"?>\n<Clock xmlns:dt="urn:schemas-microsoft-com:datatypes"><Description dt:dt="string">E-Prime Primary Realtime Clock</Description><StartTime><Timestamp dt:dt="int">0</Timestamp><DateUtc dt:dt="string">2015-02-12T16:01:28Z</DateUtc></StartTime><FrequencyChanges><FrequencyChange><Frequency dt:dt="r8">2327520000</Frequency><Timestamp dt:dt="r8">1635555120822</Timestamp><Current dt:dt="r8">0</Current><DateUtc dt:dt="string">2015-02-12T16:01:28Z</DateUtc></FrequencyChange></FrequencyChanges></Clock>\n,v4_BCL_f2_g-13-1,60.001,1.0.0.238,1,-359777857,2.0.10.242,2.0.10.242,02-12-2015,2/12/2015 4:01:28 PM,11:01:28,2.0.10.147,29,,,3,1,11,,,,,,,2,,,b,,0.257,,,9.15,,,29.11,,,,,,ExposureProc,,,,vowel 1,vowel 2,,,,Block1,b2_f0_9_15_f2_29_11_dur_0_257_num_348.wav,,,,
v4_BCL_f2_g,13,1,<?xml version="1.0"?>\n<Clock xmlns:dt="urn:schemas-microsoft-com:datatypes"><Description dt:dt="string">E-Prime Primary Realtime Clock</Description><StartTime><Timestamp dt:dt="int">0</Timestamp><DateUtc dt:dt="string">2015-02-12T16:01:28Z</DateUtc></StartTime><FrequencyChanges><FrequencyChange><Frequency dt:dt="r8">2327520000</Frequency><Timestamp dt:dt="r8">1635555120822</Timestamp><Current dt:dt="r8">0</Current><DateUtc dt:dt="string">2015-02-12T16:01:28Z</DateUtc></FrequencyChange></FrequencyChanges></Clock>\n,v4_BCL_f2_g-13-1,60.001,1.0.0.238,1,-359777857,2.0.10.242,2.0.10.242,02-12-2015,2/12/2015 4:01:28 PM,11:01:28,2.0.10.147,30,,,36,1,12,,,,,,,2,,,g,,0.251,,,9.59,,,28.52,,,,,,ExposureProc,,,,vowel 1,vowel 2,,,,Block1,g2_f0_9_59_f2_28_52_dur_0_251_num_515.wav,,,,
v4_BCL_f2_g,13,1,<?xml version="1.0"?>\n<Clock xmlns:dt="urn:schemas-microsoft-com:datatypes"><Description dt:dt="string">E-Prime Primary Realtime Clock</Description><StartTime><Timestamp dt:dt="int">0</Timestamp><DateUtc dt:dt="string">2015-02-12T16:01:28Z</DateUtc></StartTime><FrequencyChanges><FrequencyChange><Frequency dt:dt="r8">2327520000</Frequency><Timestamp dt:dt="r8">1635555120822</Timestamp><Current dt:dt="r8">0</Current><DateUtc dt:dt="string">2015-02-12T16:01:28Z</DateUtc></FrequencyChange></FrequencyChanges></Clock>\n,v4_BCL_f2_g-13-1,60.001,1.0.0.238,1,-359777857,2.0.10.242,2.0.10.242,02-12-2015,2/12/2015 4:01:28 PM,11:01:28,2.0.10.147,31,,,31,1,13,,,,,,,2,,,g,,0.249,,,9.12,,,29.12,,,,,,ExposureProc,,,,vowel 1,vowel 2,,,,Block1,g2_f0_9_12_f2_29_12_dur_0_249_num_586.wav,,,,
v4_BCL_f2_g,13,1,<?xml version="1.0"?>\n<Clock xmlns:dt="urn:schemas-microsoft-com:datatypes"><Description dt:dt="string">E-Prime Primary Realtime Clock</Description><StartTime><Timestamp dt:dt="int">0</Timestamp><DateUtc dt:dt="string">2015-02-12T16:01:28Z</DateUtc></StartTime><FrequencyChanges><FrequencyChange><Frequency dt:dt="r8">2327520000</Frequency><Timestamp dt:dt="r8">1635555120822</Timestamp><Current dt:dt="r8">0</Current><DateUtc dt:dt="string">2015-02-12T16:01:28Z</DateUtc></FrequencyChange></FrequencyChanges></Clock>\n,v4_BCL_f2_g-13-1,60.001,1.0.0.238,1,-359777857,2.0.10.242,2.0.10.242,02-12-2015,2/12/2015 4:01:28 PM,11:01:28,2.0.10.147,32,,,7,1,14,,,,,,,2,,,b,,0.246,,,8.39,,,29.83,,,,,,ExposureProc,,,,vowel 1,vowel 2,,,,Block1,b2_f0_8_39_f2_29_83_dur_0_246_num_353.wav,,,,
v4_BCL_f2_g,13,1,<?xml version="1.0"?>\n<Clock xmlns:dt="urn:schemas-microsoft-com:datatypes"><Description dt:dt="string">E-Prime Primary Realtime Clock</Description><StartTime><Timestamp dt:dt="int">0</Timestamp><DateUtc dt:dt="string">2015-02-12T16:01:28Z</DateUtc></StartTime><FrequencyChanges><FrequencyChange><Frequency dt:dt="r8">2327520000</Frequency><Timestamp dt:dt="r8">1635555120822</Timestamp><Current dt:dt="r8">0</Current><DateUtc dt:dt="string">2015-02-12T16:01:28Z</DateUtc></FrequencyChange></FrequencyChanges></Clock>\n,v4_BCL_f2_g-13-1,60.001,1.0.0.238,1,-359777857,2.0.10.242,2.0.10.242,02-12-2015,2/12/2015 4:01:28 PM,11:01:28,2.0.10.147,33,,,22,1,15,,,,,,,2,,,d,,0.246,,,8.84,,,28.92,,,,,,ExposureProc,,,,vowel 1,vowel 2,,,,Block1,d2_f0_8_84_f2_28_92_dur_0_246_num_438.wav,,,,
v4_BCL_f2_g,13,1,<?xml version="1.0"?>\n<Clock xmlns:dt="urn:schemas-microsoft-com:datatypes"><Description dt:dt="string">E-Prime Primary Realtime Clock</Description><StartTime><Timestamp dt:dt="int">0</Timestamp><DateUtc dt:dt="string">2015-02-12T16:01:28Z</DateUtc></StartTime><FrequencyChanges><FrequencyChange><Frequency dt:dt="r8">2327520000</Frequency><Timestamp dt:dt="r8">1635555120822</Timestamp><Current dt:dt="r8">0</Current><DateUtc dt:dt="string">2015-02-12T16:01:28Z</DateUtc></FrequencyChange></FrequencyChanges></Clock>\n,v4_BCL_f2_g-13-1,60.001,1.0.0.238,1,-359777857,2.0.10.242,2.0.10.242,02-12-2015,2/12/2015 4:01:28 PM,11:01:28,2.0.10.147,34,,,5,1,16,,,,,,,1,,,b,,0.252,,,11.03,,,30.44,,,,,,ExposureProc,,,,vowel 1,vowel 2,,,,Block1,b1_f0_11_03_f2_30_44_dur_0_252_num_85.wav,,,,
v4_BCL_f2_g,13,1,<?xml version="1.0"?>\n<Clock xmlns:dt="urn:schemas-microsoft-com:datatypes"><Description dt:dt="string">E-Prime Primary Realtime Clock</Description><StartTime><Timestamp dt:dt="int">0</Timestamp><DateUtc dt:dt="string">2015-02-12T16:01:28Z</DateUtc></StartTime><FrequencyChanges><FrequencyChange><Frequency dt:dt="r8">2327520000</Frequency><Timestamp dt:dt="r8">1635555120822</Timestamp><Current dt:dt="r8">0</Current><DateUtc dt:dt="string">2015-02-12T16:01:28Z</DateUtc></FrequencyChange></FrequencyChanges></Clock>\n,v4_BCL_f2_g-13-1,60.001,1.0.0.238,1,-359777857,2.0.10.242,2.0.10.242,02-12-2015,2/12/2015 4:01:28 PM,11:01:28,2.0.10.147,35,,,21,1,17,,,,,,,1,,,d,,0.244,,,8.88,,,31.59,,,,,,ExposureProc,,,,vowel 1,vowel 2,,,,Block1,d1_f0_8_88_f2_31_59_dur_0_244_num_107.wav,,,,
v4_BCL_f2_g,13,1,<?xml version="1.0"?>\n<Clock xmlns:dt="urn:schemas-microsoft-com:datatypes"><Description dt:dt="string">E-Prime Primary Realtime Clock</Description><StartTime><Timestamp dt:dt="int">0</Timestamp><DateUtc dt:dt="string">2015-02-12T16:01:28Z</DateUtc></StartTime><FrequencyChanges><FrequencyChange><Frequency dt:dt="r8">2327520000</Frequency><Timestamp dt:dt="r8">1635555120822</Timestamp><Current dt:dt="r8">0</Current><DateUtc dt:dt="string">2015-02-12T16:01:28Z</DateUtc></FrequencyChange></FrequencyChanges></Clock>\n,v4_BCL_f2_g-13-1,60.001,1.0.0.238,1,-359777857,2.0.10.242,2.0.10.242,02-12-2015,2/12/2015 4:01:28 PM,11:01:28,2.0.10.147,36,,,4,1,18,,,,,,,1,,,b,,0.25,,,9.84,,,30.38,,,,,,ExposureProc,,,,vowel 1,vowel 2,,,,Block1,b1_f0_9_84_f2_30_38_dur_0_250_num_73.wav,,,,
v4_BCL_f2_g,13,1,<?xml version="1.0"?>\n<Clock xmlns:dt="urn:schemas-microsoft-com:datatypes"><Description dt:dt="string">E-Prime Primary Realtime Clock</Description><StartTime><Timestamp dt:dt="int">0</Timestamp><DateUtc dt:dt="string">2015-02-12T16:01:28Z</DateUtc></StartTime><FrequencyChanges><FrequencyChange><Frequency dt:dt="r8">2327520000</Frequency><Timestamp dt:dt="r8">1635555120822</Timestamp><Current dt:dt="r8">0</Current><DateUtc dt:dt="string">2015-02-12T16:01:28Z</DateUtc></FrequencyChange></FrequencyChanges></Clock>\n,v4_BCL_f2_g-13-1,60.001,1.0.0.238,1,-359777857,2.0.10.242,2.0.10.242,02-12-2015,2/12/2015 4:01:28 PM,11:01:28,2.0.10.147,37,,,9,1,19,,,,,,,1,,,b,,0.252,,,8.3,,,32.46,,,,,,ExposureProc,,,,vowel 1,vowel 2,,,,Block1,b1_f0_8_30_f2_32_46_dur_0_252_num_50.wav,,,,
v4_BCL_f2_g,13,1,<?xml version="1.0"?>\n<Clock xmlns:dt="urn:schemas-microsoft-com:datatypes"><Description dt:dt="string">E-Prime Primary Realtime Clock</Description><StartTime><Timestamp dt:dt="int">0</Timestamp><DateUtc dt:dt="string">2015-02-12T16:01:28Z</DateUtc></StartTime><FrequencyChanges><FrequencyChange><Frequency dt:dt="r8">2327520000</Frequency><Timestamp dt:dt="r8">1635555120822</Timestamp><Current dt:dt="r8">0</Current><DateUtc dt:dt="string">2015-02-12T16:01:28Z</DateUtc></FrequencyChange></FrequencyChanges></Clock>\n,v4_BCL_f2_g-13-1,60.001,1.0.0.238,1,-359777857,2.0.10.242,2.0.10.242,02-12-2015,2/12/2015 4:01:28 PM,11:01:28,2.0.10.147,38,,,27,1,20,,,,,,,1,,,g,,0.247,,,8.96,,,31.6,,,,,,ExposureProc,,,,vowel 1,vowel 2,,,,Block1,g1_f0_8_96_f2_31_60_dur_0_247_num_258.wav,,,,
v4_BCL_f2_g,13,1,<?xml version="1.0"?>\n<Clock xmlns:dt="urn:schemas-microsoft-com:datatypes"><Description dt:dt="string">E-Prime Primary Realtime Clock</Description><StartTime><Timestamp dt:dt="int">0</Timestamp><DateUtc dt:dt="string">2015-02-12T16:01:28Z</DateUtc></StartTime><FrequencyChanges><FrequencyChange><Frequency dt:dt="r8">2327520000</Frequency><Timestamp dt:dt="r8">1635555120822</Timestamp><Current dt:dt="r8">0</Current><DateUtc dt:dt="string">2015-02-12T16:01:28Z</DateUtc></FrequencyChange></FrequencyChanges></Clock>\n,v4_BCL_f2_g-13-1,60.001,1.0.0.238,1,-359777857,2.0.10.242,2.0.10.242,02-12-2015,2/12/2015 4:01:28 PM,11:01:28,2.0.10.147,39,,,1,1,21,,,,,,,1,,,b,,0.248,,,9.31,,,30.98,,,,,,ExposureProc,,,,Vowel 1,Vowel 2,,,,Block1,b1_f0_9_31_f2_30_98_dur_0_248_num_43.wav,,,,
v4_BCL_f2_g,13,1,<?xml version="1.0"?>\n<Clock xmlns:dt="urn:schemas-microsoft-com:datatypes"><Description dt:dt="string">E-Prime Primary Realtime Clock</Description><StartTime><Timestamp dt:dt="int">0</Timestamp><DateUtc dt:dt="string">2015-02-12T16:01:28Z</DateUtc></StartTime><FrequencyChanges><FrequencyChange><Frequency dt:dt="r8">2327520000</Frequency><Timestamp dt:dt="r8">1635555120822</Timestamp><Current dt:dt="r8">0</Current><DateUtc dt:dt="string">2015-02-12T16:01:28Z</DateUtc></FrequencyChange></FrequencyChanges></Clock>\n,v4_BCL_f2_g-13-1,60.001,1.0.0.238,1,-359777857,2.0.10.242,2.0.10.242,02-12-2015,2/12/2015 4:01:28 PM,11:01:28,2.0.10.147,40,,,26,1,22,,,,,,,2,,,g,,0.252,,,9.07,,,29.39,,,,,,ExposureProc,,,,vowel 1,vowel 2,,,,Block1,g2_f0_9_07_f2_29_39_dur_0_252_num_592.wav,,,,
v4_BCL_f2_g,13,1,<?xml version="1.0"?>\n<Clock xmlns:dt="urn:schemas-microsoft-com:datatypes"><Description dt:dt="string">E-Prime Primary Realtime Clock</Description><StartTime><Timestamp dt:dt="int">0</Timestamp><DateUtc dt:dt="string">2015-02-12T16:01:28Z</DateUtc></StartTime><FrequencyChanges><FrequencyChange><Frequency dt:dt="r8">2327520000</Frequency><Timestamp dt:dt="r8">1635555120822</Timestamp><Current dt:dt="r8">0</Current><DateUtc dt:dt="string">2015-02-12T16:01:28Z</DateUtc></FrequencyChange></FrequencyChanges></Clock>\n,v4_BCL_f2_g-13-1,60.001,1.0.0.238,1,-359777857,2.0.10.242,2.0.10.242,02-12-2015,2/12/2015 4:01:28 PM,11:01:28,2.0.10.147,41,,,18,1,23,,,,,,,2,,,d,,0.249,,,8.59,,,29.81,,,,,,ExposureProc,,,,vowel 1,vowel 2,,,,Block1,d2_f0_8_59_f2_29_81_dur_0_249_num_463.wav,,,,
v4_BCL_f2_g,13,1,<?xml version="1.0"?>\n<Clock xmlns:dt="urn:schemas-microsoft-com:datatypes"><Description dt:dt="string">E-Prime Primary Realtime Clock</Description><StartTime><Timestamp dt:dt="int">0</Timestamp><DateUtc dt:dt="string">2015-02-12T16:01:28Z</DateUtc></StartTime><FrequencyChanges><FrequencyChange><Frequency dt:dt="r8">2327520000</Frequency><Timestamp dt:dt="r8">1635555120822</Timestamp><Current dt:dt="r8">0</Current><DateUtc dt:dt="string">2015-02-12T16:01:28Z</DateUtc></FrequencyChange></FrequencyChanges></Clock>\n,v4_BCL_f2_g-13-1,60.001,1.0.0.238,1,-359777857,2.0.10.242,2.0.10.242,02-12-2015,2/12/2015 4:01:28 PM,11:01:28,2.0.10.147,42,,,13,1,24,,,,,,,1,,,d,,0.253,,,9.15,,,31.39,,,,,,ExposureProc,,,,vowel 1,vowel 2,,,,Block1,d1_f0_9_15_f2_31_39_dur_0_253_num_105.wav,,,,
v4_BCL_f2_g,13,1,<?xml version="1.0"?>\n<Clock xmlns:dt="urn:schemas-microsoft-com:datatypes"><Description dt:dt="string">E-Prime Primary Realtime Clock</Description><StartTime><Timestamp dt:dt="int">0</Timestamp><DateUtc dt:dt="string">2015-02-12T16:01:28Z</DateUtc></StartTime><FrequencyChanges><FrequencyChange><Frequency dt:dt="r8">2327520000</Frequency><Timestamp dt:dt="r8">1635555120822</Timestamp><Current dt:dt="r8">0</Current><DateUtc dt:dt="string">2015-02-12T16:01:28Z</DateUtc></FrequencyChange></FrequencyChanges></Clock>\n,v4_BCL_f2_g-13-1,60.001,1.0.0.238,1,-359777857,2.0.10.242,2.0.10.242,02-12-2015,2/12/2015 4:01:28 PM,11:01:28,2.0.10.147,43,,,25,1,25,,,,,,,1,,,g,,0.248,,,10.93,,,29.74,,,,,,ExposureProc,,,,vowel 1,vowel 2,,,,Block1,g1_f0_10_93_f2_29_74_dur_0_248_num_251.wav,,,,
v4_BCL_f2_g,13,1,<?xml version="1.0"?>\n<Clock xmlns:dt="urn:schemas-microsoft-com:datatypes"><Description dt:dt="string">E-Prime Primary Realtime Clock</Description><StartTime><Timestamp dt:dt="int">0</Timestamp><DateUtc dt:dt="string">2015-02-12T16:01:28Z</DateUtc></StartTime><FrequencyChanges><FrequencyChange><Frequency dt:dt="r8">2327520000</Frequency><Timestamp dt:dt="r8">1635555120822</Timestamp><Current dt:dt="r8">0</Current><DateUtc dt:dt="string">2015-02-12T16:01:28Z</DateUtc></FrequencyChange></FrequencyChanges></Clock>\n,v4_BCL_f2_g-13-1,60.001,1.0.0.238,1,-359777857,2.0.10.242,2.0.10.242,02-12-2015,2/12/2015 4:01:28 PM,11:01:28,2.0.10.147,44,,,20,1,26,,,,,,,2,,,d,,0.258,,,9.63,,,29.99,,,,,,ExposureProc,,,,vowel 1,vowel 2,,,,Block1,d2_f0_9_63_f2_29_99_dur_0_258_num_488.wav,,,,
v4_BCL_f2_g,13,1,<?xml version="1.0"?>\n<Clock xmlns:dt="urn:schemas-microsoft-com:datatypes"><Description dt:dt="string">E-Prime Primary Realtime Clock</Description><StartTime><Timestamp dt:dt="int">0</Timestamp><DateUtc dt:dt="string">2015-02-12T16:01:28Z</DateUtc></StartTime><FrequencyChanges><FrequencyChange><Frequency dt:dt="r8">2327520000</Frequency><Timestamp dt:dt="r8">1635555120822</Timestamp><Current dt:dt="r8">0</Current><DateUtc dt:dt="string">2015-02-12T16:01:28Z</DateUtc></FrequencyChange></FrequencyChanges></Clock>\n,v4_BCL_f2_g-13-1,60.001,1.0.0.238,1,-359777857,2.0.10.242,2.0.10.242,02-12-2015,2/12/2015 4:01:28 PM,11:01:28,2.0.10.147,45,,,33,1,27,,,,,,,1,,,g,,0.251,,,8.49,,,31.49,,,,,,ExposureProc,,,,vowel 1,vowel 2,,,,Block1,g1_f0_8_49_f2_31_49_dur_0_251_num_276.wav,,,,
v4_BCL_f2_g,13,1,<?xml version="1.0"?>\n<Clock xmlns:dt="urn:schemas-microsoft-com:datatypes"><Description dt:dt="string">E-Prime Primary Realtime Clock</Description><StartTime><Timestamp dt:dt="int">0</Timestamp><DateUtc dt:dt="string">2015-02-12T16:01:28Z</DateUtc></StartTime><FrequencyChanges><FrequencyChange><Frequency dt:dt="r8">2327520000</Frequency><Timestamp dt:dt="r8">1635555120822</Timestamp><Current dt:dt="r8">0</Current><DateUtc dt:dt="string">2015-02-12T16:01:28Z</DateUtc></FrequencyChange></FrequencyChanges></Clock>\n,v4_BCL_f2_g-13-1,60.001,1.0.0.238,1,-359777857,2.0.10.242,2.0.10.242,02-12-2015,2/12/2015 4:01:28 PM,11:01:28,2.0.10.147,46,,,16,1,28,,,,,,,1,,,d,,0.25,,,9.57,,,31.18,,,,,,ExposureProc,,,,vowel 1,vowel 2,,,,Block1,d1_f0_9_57_f2_31_18_dur_0_250_num_131.wav,,,,
v4_BCL_f2_g,13,1,<?xml version="1.0"?>\n<Clock xmlns:dt="urn:schemas-microsoft-com:datatypes"><Description dt:dt="string">E-Prime Primary Realtime Clock</Description><StartTime><Timestamp dt:dt="int">0</Timestamp><DateUtc dt:dt="string">2015-02-12T16:01:28Z</DateUtc></StartTime><FrequencyChanges><FrequencyChange><Frequency dt:dt="r8">2327520000</Frequency><Timestamp dt:dt="r8">1635555120822</Timestamp><Current dt:dt="r8">0</Current><DateUtc dt:dt="string">2015-02-12T16:01:28Z</DateUtc></FrequencyChange></FrequencyChanges></Clock>\n,v4_BCL_f2_g-13-1,60.001,1.0.0.238,1,-359777857,2.0.10.242,2.0.10.242,02-12-2015,2/12/2015 4:01:28 PM,11:01:28,2.0.10.147,47,,,32,1,29,,,,,,,2,,,g,,0.249,,,7.72,,,30.14,,,,,,ExposureProc,,,,vowel 1,vowel 2,,,,Block1,g2_f0_7_72_f2_30_14_dur_0_249_num_558.wav,,,,
v4_BCL_f2_g,13,1,<?xml version="1.0"?>\n<Clock xmlns:dt="urn:schemas-microsoft-com:datatypes"><Description dt:dt="string">E-Prime Primary Realtime Clock</Description><StartTime><Timestamp dt:dt="int">0</Timestamp><DateUtc dt:dt="string">2015-02-12T16:01:28Z</DateUtc></StartTime><FrequencyChanges><FrequencyChange><Frequency dt:dt="r8">2327520000</Frequency><Timestamp dt:dt="r8">1635555120822</Timestamp><Current dt:dt="r8">0</Current><DateUtc dt:dt="string">2015-02-12T16:01:28Z</DateUtc></FrequencyChange></FrequencyChanges></Clock>\n,v4_BCL_f2_g-13-1,60.001,1.0.0.238,1,-359777857,2.0.10.242,2.0.10.242,02-12-2015,2/12/2015 4:01:28 PM,11:01:28,2.0.10.147,48,,,11,1,30,,,,,,,1,,,b,,0.246,,,9.17,,,29.8,,,,,,ExposureProc,,,,vowel 1,vowel 2,,,,Block1,b1_f0_9_17_f2_29_80_dur_0_246_num_91.wav,,,,
v4_BCL_f2_g,13,1,<?xml version="1.0"?>\n<Clock xmlns:dt="urn:schemas-microsoft-com:datatypes"><Description dt:dt="string">E-Prime Primary Realtime Clock</Description><StartTime><Timestamp dt:dt="int">0</Timestamp><DateUtc dt:dt="string">2015-02-12T16:01:28Z</DateUtc></StartTime><FrequencyChanges><FrequencyChange><Frequency dt:dt="r8">2327520000</Frequency><Timestamp dt:dt="r8">1635555120822</Timestamp><Current dt:dt="r8">0</Current><DateUtc dt:dt="string">2015-02-12T16:01:28Z</DateUtc></FrequencyChange></FrequencyChanges></Clock>\n,v4_BCL_f2_g-13-1,60.001,1.0.0.238,1,-359777857,2.0.10.242,2.0.10.242,02-12-2015,2/12/2015 4:01:28 PM,11:01:28,2.0.10.147,49,,,29,1,31,,,,,,,1,,,g,,0.256,,,8.26,,,30.96,,,,,,ExposureProc,,,,vowel 1,vowel 2,,,,Block1,g1_f0_8_26_f2_30_96_dur_0_256_num_296.wav,,,,
v4_BCL_f2_g,13,1,<?xml version="1.0"?>\n<Clock xmlns:dt="urn:schemas-microsoft-com:datatypes"><Description dt:dt="string">E-Prime Primary Realtime Clock</Description><StartTime><Timestamp dt:dt="int">0</Timestamp><DateUtc dt:dt="string">2015-02-12T16:01:28Z</DateUtc></StartTime><FrequencyChanges><FrequencyChange><Frequency dt:dt="r8">2327520000</Frequency><Timestamp dt:dt="r8">1635555120822</Timestamp><Current dt:dt="r8">0</Current><DateUtc dt:dt="string">2015-02-12T16:01:28Z</DateUtc></FrequencyChange></FrequencyChanges></Clock>\n,v4_BCL_f2_g-13-1,60.001,1.0.0.238,1,-359777857,2.0.10.242,2.0.10.242,02-12-2015,2/12/2015 4:01:28 PM,11:01:28,2.0.10.147,50,,,10,1,32,,,,,,,1,,,b,,0.245,,,8.08,,,31.67,,,,,,ExposureProc,,,,vowel 1,vowel 2,,,,Block1,b1_f0_8_08_f2_31_67_dur_0_245_num_64.wav,,,,
v4_BCL_f2_g,13,1,<?xml version="1.0"?>\n<Clock xmlns:dt="urn:schemas-microsoft-com:datatypes"><Description dt:dt="string">E-Prime Primary Realtime Clock</Description><StartTime><Timestamp dt:dt="int">0</Timestamp><DateUtc dt:dt="string">2015-02-12T16:01:28Z</DateUtc></StartTime><FrequencyChanges><FrequencyChange><Frequency dt:dt="r8">2327520000</Frequency><Timestamp dt:dt="r8">1635555120822</Timestamp><Current dt:dt="r8">0</Current><DateUtc dt:dt="string">2015-02-12T16:01:28Z</DateUtc></FrequencyChange></FrequencyChanges></Clock>\n,v4_BCL_f2_g-13-1,60.001,1.0.0.238,1,-359777857,2.0.10.242,2.0.10.242,02-12-2015,2/12/2015 4:01:28 PM,11:01:28,2.0.10.147,51,,,8,1,33,,,,,,,2,,,b,,0.247,,,9.42,,,29.01,,,,,,ExposureProc,,,,vowel 1,vowel 2,,,,Block1,b2_f0_9_42_f2_29_01_dur_0_247_num_318.wav,,,,
v4_BCL_f2_g,13,1,<?xml version="1.0"?>\n<Clock xmlns:dt="urn:schemas-microsoft-com:datatypes"><Description dt:dt="string">E-Prime Primary Realtime Clock</Description><StartTime><Timestamp dt:dt="int">0</Timestamp><DateUtc dt:dt="string">2015-02-12T16:01:28Z</DateUtc></StartTime><FrequencyChanges><FrequencyChange><Frequency dt:dt="r8">2327520000</Frequency><Timestamp dt:dt="r8">1635555120822</Timestamp><Current dt:dt="r8">0</Current><DateUtc dt:dt="string">2015-02-12T16:01:28Z</DateUtc></FrequencyChange></FrequencyChanges></Clock>\n,v4_BCL_f2_g-13-1,60.001,1.0.0.238,1,-359777857,2.0.10.242,2.0.10.242,02-12-2015,2/12/2015 4:01:28 PM,11:01:28,2.0.10.147,52,,,28,1,34,,,,,,,1,,,g,,0.251,,,8.85,,,31.63,,,,,,ExposureProc,,,,vowel 1,vowel 2,,,,Block1,g1_f0_8_85_f2_31_63_dur_0_251_num_293.wav,,,,
v4_BCL_f2_g,13,1,<?xml version="1.0"?>\n<Clock xmlns:dt="urn:schemas-microsoft-com:datatypes"><Description dt:dt="string">E-Prime Primary Realtime Clock</Description><StartTime><Timestamp dt:dt="int">0</Timestamp><DateUtc dt:dt="string">2015-02-12T16:01:28Z</DateUtc></StartTime><FrequencyChanges><FrequencyChange><Frequency dt:dt="r8">2327520000</Frequency><Timestamp dt:dt="r8">1635555120822</Timestamp><Current dt:dt="r8">0</Current><DateUtc dt:dt="string">2015-02-12T16:01:28Z</DateUtc></FrequencyChange></FrequencyChanges></Clock>\n,v4_BCL_f2_g-13-1,60.001,1.0.0.238,1,-359777857,2.0.10.242,2.0.10.242,02-12-2015,2/12/2015 4:01:28 PM,11:01:28,2.0.10.147,53,,,23,1,35,,,,,,,2,,,d,,0.252,,,8.17,,,29.6,,,,,,ExposureProc,,,,vowel 1,vowel 2,,,,Block1,d2_f0_8_17_f2_29_60_dur_0_252_num_462.wav,,,,
v4_BCL_f2_g,13,1,<?xml version="1.0"?>\n<Clock xmlns:dt="urn:schemas-microsoft-com:datatypes"><Description dt:dt="string">E-Prime Primary Realtime Clock</Description><StartTime><Timestamp dt:dt="int">0</Timestamp><DateUtc dt:dt="string">2015-02-12T16:01:28Z</DateUtc></StartTime><FrequencyChanges><FrequencyChange><Frequency dt:dt="r8">2327520000</Frequency><Timestamp dt:dt="r8">1635555120822</Timestamp><Current dt:dt="r8">0</Current><DateUtc dt:dt="string">2015-02-12T16:01:28Z</DateUtc></FrequencyChange></FrequencyChanges></Clock>\n,v4_BCL_f2_g-13-1,60.001,1.0.0.238,1,-359777857,2.0.10.242,2.0.10.242,02-12-2015,2/12/2015 4:01:28 PM,11:01:28,2.0.10.147,54,,,35,1,36,,,,,,,2,,,g,,0.247,,,9.27,,,29.4,,,,,,ExposureProc,,,,vowel 1,vowel 2,,,,Block1,g2_f0_9_27_f2_29_40_dur_0_247_num_583.wav,,,,
v4_BCL_f2_g,13,1,<?xml version="1.0"?>\n<Clock xmlns:dt="urn:schemas-microsoft-com:datatypes"><Description dt:dt="string">E-Prime Primary Realtime Clock</Description><StartTime><Timestamp dt:dt="int">0</Timestamp><DateUtc dt:dt="string">2015-02-12T16:01:28Z</DateUtc></StartTime><FrequencyChanges><FrequencyChange><Frequency dt:dt="r8">2327520000</Frequency><Timestamp dt:dt="r8">1635555120822</Timestamp><Current dt:dt="r8">0</Current><DateUtc dt:dt="string">2015-02-12T16:01:28Z</DateUtc></FrequencyChange></FrequencyChanges></Clock>\n,v4_BCL_f2_g-13-1,60.001,1.0.0.238,1,-359777857,2.0.10.242,2.0.10.242,02-12-2015,2/12/2015 4:01:28 PM,11:01:28,2.0.10.147,55,,,,,,1,1,1,,,,2,,,g,,0.25,,,8.18,,,30.04,,,,,,TrialProc1,,,,vowel 1,vowel 2,1,866,359349,Block2,g2_f0_8_18_f2_30_04_dur_0_250_num_534.wav,,,,
v4_BCL_f2_g,13,1,<?xml version="1.0"?>\n<Clock xmlns:dt="urn:schemas-microsoft-com:datatypes"><Description dt:dt="string">E-Prime Primary Realtime Clock</Description><StartTime><Timestamp dt:dt="int">0</Timestamp><DateUtc dt:dt="string">2015-02-12T16:01:28Z</DateUtc></StartTime><FrequencyChanges><FrequencyChange><Frequency dt:dt="r8">2327520000</Frequency><Timestamp dt:dt="r8">1635555120822</Timestamp><Current dt:dt="r8">0</Current><DateUtc dt:dt="string">2015-02-12T16:01:28Z</DateUtc></FrequencyChange></FrequencyChanges></Clock>\n,v4_BCL_f2_g-13-1,60.001,1.0.0.238,1,-359777857,2.0.10.242,2.0.10.242,02-12-2015,2/12/2015 4:01:28 PM,11:01:28,2.0.10.147,56,,,,,,2,1,2,,,,1,,,g,,0.252,,,10.01,,,30.77,,,,,,TrialProc1,,,,vowel 1,vowel 2,,0,0,Block2,g1_f0_10_01_f2_30_77_dur_0_252_num_269.wav,,,,
v4_BCL_f2_g,13,1,<?xml version="1.0"?>\n<Clock xmlns:dt="urn:schemas-microsoft-com:datatypes"><Description dt:dt="string">E-Prime Primary Realtime Clock</Description><StartTime><Timestamp dt:dt="int">0</Timestamp><DateUtc dt:dt="string">2015-02-12T16:01:28Z</DateUtc></StartTime><FrequencyChanges><FrequencyChange><Frequency dt:dt="r8">2327520000</Frequency><Timestamp dt:dt="r8">1635555120822</Timestamp><Current dt:dt="r8">0</Current><DateUtc dt:dt="string">2015-02-12T16:01:28Z</DateUtc></FrequencyChange></FrequencyChanges></Clock>\n,v4_BCL_f2_g-13-1,60.001,1.0.0.238,1,-359777857,2.0.10.242,2.0.10.242,02-12-2015,2/12/2015 4:01:28 PM,11:01:28,2.0.10.147,57,,,,,,3,1,3,,,,2,,,g,,0.254,,,8.99,,,28.58,,,,,,TrialProc1,,,,vowel 1,vowel 2,1,453,362936,Block2,g2_f0_8_99_f2_28_58_dur_0_254_num_501.wav,,,,
v4_BCL_f2_g,13,1,<?xml version="1.0"?>\n<Clock xmlns:dt="urn:schemas-microsoft-com:datatypes"><Description dt:dt="string">E-Prime Primary Realtime Clock</Description><StartTime><Timestamp dt:dt="int">0</Timestamp><DateUtc dt:dt="string">2015-02-12T16:01:28Z</DateUtc></StartTime><FrequencyChanges><FrequencyChange><Frequency dt:dt="r8">2327520000</Frequency><Timestamp dt:dt="r8">1635555120822</Timestamp><Current dt:dt="r8">0</Current><DateUtc dt:dt="string">2015-02-12T16:01:28Z</DateUtc></FrequencyChange></FrequencyChanges></Clock>\n,v4_BCL_f2_g-13-1,60.001,1.0.0.238,1,-359777857,2.0.10.242,2.0.10.242,02-12-2015,2/12/2015 4:01:28 PM,11:01:28,2.0.10.147,58,,,,,,4,1,4,,,,2,,,g,,0.253,,,8.96,,,29.72,,,,,,TrialProc1,,,,vowel 1,vowel 2,2,101,363851,Block2,g2_f0_8_96_f2_29_72_dur_0_253_num_533.wav,,,,
v4_BCL_f2_g,13,1,<?xml version="1.0"?>\n<Clock xmlns:dt="urn:schemas-microsoft-com:datatypes"><Description dt:dt="string">E-Prime Primary Realtime Clock</Description><StartTime><Timestamp dt:dt="int">0</Timestamp><DateUtc dt:dt="string">2015-02-12T16:01:28Z</DateUtc></StartTime><FrequencyChanges><FrequencyChange><Frequency dt:dt="r8">2327520000</Frequency><Timestamp dt:dt="r8">1635555120822</Timestamp><Current dt:dt="r8">0</Current><DateUtc dt:dt="string">2015-02-12T16:01:28Z</DateUtc></FrequencyChange></FrequencyChanges></Clock>\n,v4_BCL_f2_g-13-1,60.001,1.0.0.238,1,-359777857,2.0.10.242,2.0.10.242,02-12-2015,2/12/2015 4:01:28 PM,11:01:28,2.0.10.147,59,,,,,,5,1,5,,,,2,,,g,,0.244,,,9.21,,,29.39,,,,,,TrialProc1,,,,vowel 1,vowel 2,2,380,365047,Block2,g2_f0_9_21_f2_29_39_dur_0_244_num_557.wav,,,,
v4_BCL_f2_g,13,1,<?xml version="1.0"?>\n<Clock xmlns:dt="urn:schemas-microsoft-com:datatypes"><Description dt:dt="string">E-Prime Primary Realtime Clock</Description><StartTime><Timestamp dt:dt="int">0</Timestamp><DateUtc dt:dt="string">2015-02-12T16:01:28Z</DateUtc></StartTime><FrequencyChanges><FrequencyChange><Frequency dt:dt="r8">2327520000</Frequency><Timestamp dt:dt="r8">1635555120822</Timestamp><Current dt:dt="r8">0</Current><DateUtc dt:dt="string">2015-02-12T16:01:28Z</DateUtc></FrequencyChange></FrequencyChanges></Clock>\n,v4_BCL_f2_g-13-1,60.001,1.0.0.238,1,-359777857,2.0.10.242,2.0.10.242,02-12-2015,2/12/2015 4:01:28 PM,11:01:28,2.0.10.147,60,,,,,,6,1,6,,,,1,,,g,,0.248,,,8.79,,,30.96,,,,,,TrialProc1,,,,vowel 1,vowel 2,2,500,366350,Block2,g1_f0_8_79_f2_30_96_dur_0_248_num_290.wav,,,,
v4_BCL_f2_g,13,1,<?xml version="1.0"?>\n<Clock xmlns:dt="urn:schemas-microsoft-com:datatypes"><Description dt:dt="string">E-Prime Primary Realtime Clock</Description><StartTime><Timestamp dt:dt="int">0</Timestamp><DateUtc dt:dt="string">2015-02-12T16:01:28Z</DateUtc></StartTime><FrequencyChanges><FrequencyChange><Frequency dt:dt="r8">2327520000</Frequency><Timestamp dt:dt="r8">1635555120822</Timestamp><Current dt:dt="r8">0</Current><DateUtc dt:dt="string">2015-02-12T16:01:28Z</DateUtc></FrequencyChange></FrequencyChanges></Clock>\n,v4_BCL_f2_g-13-1,60.001,1.0.0.238,1,-359777857,2.0.10.242,2.0.10.242,02-12-2015,2/12/2015 4:01:28 PM,11:01:28,2.0.10.147,61,,,,,,7,1,7,,,,1,,,g,,0.253,,,10.82,,,29.96,,,,,,TrialProc1,,,,vowel 1,vowel 2,1,367,367534,Block2,g1_f0_10_82_f2_29_96_dur_0_253_num_225.wav,,,,
v4_BCL_f2_g,13,1,<?xml version="1.0"?>\n<Clock xmlns:dt="urn:schemas-microsoft-com:datatypes"><Description dt:dt="string">E-Prime Primary Realtime Clock</Description><StartTime><Timestamp dt:dt="int">0</Timestamp><DateUtc dt:dt="string">2015-02-12T16:01:28Z</DateUtc></StartTime><FrequencyChanges><FrequencyChange><Frequency dt:dt="r8">2327520000</Frequency><Timestamp dt:dt="r8">1635555120822</Timestamp><Current dt:dt="r8">0</Current><DateUtc dt:dt="string">2015-02-12T16:01:28Z</DateUtc></FrequencyChange></FrequencyChanges></Clock>\n,v4_BCL_f2_g-13-1,60.001,1.0.0.238,1,-359777857,2.0.10.242,2.0.10.242,02-12-2015,2/12/2015 4:01:28 PM,11:01:28,2.0.10.147,62,,,,,,8,1,8,,,,2,,,g,,0.247,,,9.41,,,28.83,,,,,,TrialProc1,,,,vowel 1,vowel 2,1,406,368756,Block2,g2_f0_9_41_f2_28_83_dur_0_247_num_531.wav,,,,
v4_BCL_f2_g,13,1,<?xml version="1.0"?>\n<Clock xmlns:dt="urn:schemas-microsoft-com:datatypes"><Description dt:dt="string">E-Prime Primary Realtime Clock</Description><StartTime><Timestamp dt:dt="int">0</Timestamp><DateUtc dt:dt="string">2015-02-12T16:01:28Z</DateUtc></StartTime><FrequencyChanges><FrequencyChange><Frequency dt:dt="r8">2327520000</Frequency><Timestamp dt:dt="r8">1635555120822</Timestamp><Current dt:dt="r8">0</Current><DateUtc dt:dt="string">2015-02-12T16:01:28Z</DateUtc></FrequencyChange></FrequencyChanges></Clock>\n,v4_BCL_f2_g-13-1,60.001,1.0.0.238,1,-359777857,2.0.10.242,2.0.10.242,02-12-2015,2/12/2015 4:01:28 PM,11:01:28,2.0.10.147,63,,,,,,9,1,9,,,,2,,,g,,0.243,,,8.46,,,29.96,,,,,,TrialProc1,,,,vowel 1,vowel 2,2,442,370009,Block2,g2_f0_8_46_f2_29_96_dur_0_243_num_504.wav,,,,
v4_BCL_f2_g,13,1,<?xml version="1.0"?>\n<Clock xmlns:dt="urn:schemas-microsoft-com:datatypes"><Description dt:dt="string">E-Prime Primary Realtime Clock</Description><StartTime><Timestamp dt:dt="int">0</Timestamp><DateUtc dt:dt="string">2015-02-12T16:01:28Z</DateUtc></StartTime><FrequencyChanges><FrequencyChange><Frequency dt:dt="r8">2327520000</Frequency><Timestamp dt:dt="r8">1635555120822</Timestamp><Current dt:dt="r8">0</Current><DateUtc dt:dt="string">2015-02-12T16:01:28Z</DateUtc></FrequencyChange></FrequencyChanges></Clock>\n,v4_BCL_f2_g-13-1,60.001,1.0.0.238,1,-359777857,2.0.10.242,2.0.10.242,02-12-2015,2/12/2015 4:01:28 PM,11:01:28,2.0.10.147,64,,,,,,10,1,10,,,,1,,,g,,0.248,,,9.39,,,30.11,,,,,,TrialProc1,,,,vowel 1,vowel 2,1,242,371075,Block2,g1_f0_9_39_f2_30_11_dur_0_248_num_205.wav,,,,
v4_BCL_f2_g,13,1,<?xml version="1.0"?>\n<Clock xmlns:dt="urn:schemas-microsoft-com:datatypes"><Description dt:dt="string">E-Prime Primary Realtime Clock</Description><StartTime><Timestamp dt:dt="int">0</Timestamp><DateUtc dt:dt="string">2015-02-12T16:01:28Z</DateUtc></StartTime><FrequencyChanges><FrequencyChange><Frequency dt:dt="r8">2327520000</Frequency><Timestamp dt:dt="r8">1635555120822</Timestamp><Current dt:dt="r8">0</Current><DateUtc dt:dt="string">2015-02-12T16:01:28Z</DateUtc></FrequencyChange></FrequencyChanges></Clock>\n,v4_BCL_f2_g-13-1,60.001,1.0.0.238,1,-359777857,2.0.10.242,2.0.10.242,02-12-2015,2/12/2015 4:01:28 PM,11:01:28,2.0.10.147,65,,,,,,11,1,11,,,,1,,,g,,0.251,,,9.58,,,31.06,,,,,,TrialProc1,,,,vowel 1,vowel 2,1,400,372283,Block2,g1_f0_9_58_f2_31_06_dur_0_251_num_222.wav,,,,
v4_BCL_f2_g,13,1,<?xml version="1.0"?>\n<Clock xmlns:dt="urn:schemas-microsoft-com:datatypes"><Description dt:dt="string">E-Prime Primary Realtime Clock</Description><StartTime><Timestamp dt:dt="int">0</Timestamp><DateUtc dt:dt="string">2015-02-12T16:01:28Z</DateUtc></StartTime><FrequencyChanges><FrequencyChange><Frequency dt:dt="r8">2327520000</Frequency><Timestamp dt:dt="r8">1635555120822</Timestamp><Current dt:dt="r8">0</Current><DateUtc dt:dt="string">2015-02-12T16:01:28Z</DateUtc></FrequencyChange></FrequencyChanges></Clock>\n,v4_BCL_f2_g-13-1,60.001,1.0.0.238,1,-359777857,2.0.10.242,2.0.10.242,02-12-2015,2/12/2015 4:01:28 PM,11:01:28,2.0.10.147,66,,,,,,12,1,12,,,,1,,,g,,0.249,,,10.26,,,29.72,,,,,,TrialProc1,,,,vowel 1,vowel 2,1,617,373717,Block2,g1_f0_10_26_f2_29_72_dur_0_249_num_202.wav,,,,
v4_BCL_f2_g,13,1,<?xml version="1.0"?>\n<Clock xmlns:dt="urn:schemas-microsoft-com:datatypes"><Description dt:dt="string">E-Prime Primary Realtime Clock</Description><StartTime><Timestamp dt:dt="int">0</Timestamp><DateUtc dt:dt="string">2015-02-12T16:01:28Z</DateUtc></StartTime><FrequencyChanges><FrequencyChange><Frequency dt:dt="r8">2327520000</Frequency><Timestamp dt:dt="r8">1635555120822</Timestamp><Current dt:dt="r8">0</Current><DateUtc dt:dt="string">2015-02-12T16:01:28Z</DateUtc></FrequencyChange></FrequencyChanges></Clock>\n,v4_BCL_f2_g-13-1,60.001,1.0.0.238,1,-359777857,2.0.10.242,2.0.10.242,02-12-2015,2/12/2015 4:01:28 PM,11:01:28,2.0.10.147,67,,,,,,13,1,13,,,,2,,,g,,0.246,,,9.09,,,29.46,,,,,,TrialProc1,,,,vowel 1,vowel 2,2,213,374746,Block2,g2_f0_9_09_f2_29_46_dur_0_246_num_587.wav,,,,
v4_BCL_f2_g,13,1,<?xml version="1.0"?>\n<Clock xmlns:dt="urn:schemas-microsoft-com:datatypes"><Description dt:dt="string">E-Prime Primary Realtime Clock</Description><StartTime><Timestamp dt:dt="int">0</Timestamp><DateUtc dt:dt="string">2015-02-12T16:01:28Z</DateUtc></StartTime><FrequencyChanges><FrequencyChange><Frequency dt:dt="r8">2327520000</Frequency><Timestamp dt:dt="r8">1635555120822</Timestamp><Current dt:dt="r8">0</Current><DateUtc dt:dt="string">2015-02-12T16:01:28Z</DateUtc></FrequencyChange></FrequencyChanges></Clock>\n,v4_BCL_f2_g-13-1,60.001,1.0.0.238,1,-359777857,2.0.10.242,2.0.10.242,02-12-2015,2/12/2015 4:01:28 PM,11:01:28,2.0.10.147,68,,,,,,14,1,14,,,,1,,,g,,0.248,,,9.85,,,30.45,,,,,,TrialProc1,,,,vowel 1,vowel 2,1,317,375884,Block2,g1_f0_9_85_f2_30_45_dur_0_248_num_297.wav,,,,
v4_BCL_f2_g,13,1,<?xml version="1.0"?>\n<Clock xmlns:dt="urn:schemas-microsoft-com:datatypes"><Description dt:dt="string">E-Prime Primary Realtime Clock</Description><StartTime><Timestamp dt:dt="int">0</Timestamp><DateUtc dt:dt="string">2015-02-12T16:01:28Z</DateUtc></StartTime><FrequencyChanges><FrequencyChange><Frequency dt:dt="r8">2327520000</Frequency><Timestamp dt:dt="r8">1635555120822</Timestamp><Current dt:dt="r8">0</Current><DateUtc dt:dt="string">2015-02-12T16:01:28Z</DateUtc></FrequencyChange></FrequencyChanges></Clock>\n,v4_BCL_f2_g-13-1,60.001,1.0.0.238,1,-359777857,2.0.10.242,2.0.10.242,02-12-2015,2/12/2015 4:01:28 PM,11:01:28,2.0.10.147,69,,,,,,15,1,15,,,,1,,,g,,0.243,,,9.45,,,30.99,,,,,,TrialProc1,,,,vowel 1,vowel 2,1,363,377063,Block2,g1_f0_9_45_f2_30_99_dur_0_243_num_239.wav,,,,
v4_BCL_f2_g,13,1,<?xml version="1.0"?>\n<Clock xmlns:dt="urn:schemas-microsoft-com:datatypes"><Description dt:dt="string">E-Prime Primary Realtime Clock</Description><StartTime><Timestamp dt:dt="int">0</Timestamp><DateUtc dt:dt="string">2015-02-12T16:01:28Z</DateUtc></StartTime><FrequencyChanges><FrequencyChange><Frequency dt:dt="r8">2327520000</Frequency><Timestamp dt:dt="r8">1635555120822</Timestamp><Current dt:dt="r8">0</Current><DateUtc dt:dt="string">2015-02-12T16:01:28Z</DateUtc></FrequencyChange></FrequencyChanges></Clock>\n,v4_BCL_f2_g-13-1,60.001,1.0.0.238,1,-359777857,2.0.10.242,2.0.10.242,02-12-2015,2/12/2015 4:01:28 PM,11:01:28,2.0.10.147,70,,,,,,16,1,16,,,,2,,,g,,0.248,,,8.81,,,29.68,,,,,,TrialProc1,,,,vowel 1,vowel 2,2,650,378533,Block2,g2_f0_8_81_f2_29_68_dur_0_248_num_509.wav,,,,
v4_BCL_f2_g,13,1,<?xml version="1.0"?>\n<Clock xmlns:dt="urn:schemas-microsoft-com:datatypes"><Description dt:dt="string">E-Prime Primary Realtime Clock</Description><StartTime><Timestamp dt:dt="int">0</Timestamp><DateUtc dt:dt="string">2015-02-12T16:01:28Z</DateUtc></StartTime><FrequencyChanges><FrequencyChange><Frequency dt:dt="r8">2327520000</Frequency><Timestamp dt:dt="r8">1635555120822</Timestamp><Current dt:dt="r8">0</Current><DateUtc dt:dt="string">2015-02-12T16:01:28Z</DateUtc></FrequencyChange></FrequencyChanges></Clock>\n,v4_BCL_f2_g-13-1,60.001,1.0.0.238,1,-359777857,2.0.10.242,2.0.10.242,02-12-2015,2/12/2015 4:01:28 PM,11:01:28,2.0.10.147,71,,,,,,17,1,17,,,,2,,,g,,0.25,,,9.13,,,29.01,,,,,,TrialProc1,,,,vowel 1,vowel 2,2,426,379759,Block2,g2_f0_9_13_f2_29_01_dur_0_250_num_582.wav,,,,
v4_BCL_f2_g,13,1,<?xml version="1.0"?>\n<Clock xmlns:dt="urn:schemas-microsoft-com:datatypes"><Description dt:dt="string">E-Prime Primary Realtime Clock</Description><StartTime><Timestamp dt:dt="int">0</Timestamp><DateUtc dt:dt="string">2015-02-12T16:01:28Z</DateUtc></StartTime><FrequencyChanges><FrequencyChange><Frequency dt:dt="r8">2327520000</Frequency><Timestamp dt:dt="r8">1635555120822</Timestamp><Current dt:dt="r8">0</Current><DateUtc dt:dt="string">2015-02-12T16:01:28Z</DateUtc></FrequencyChange></FrequencyChanges></Clock>\n,v4_BCL_f2_g-13-1,60.001,1.0.0.238,1,-359777857,2.0.10.242,2.0.10.242,02-12-2015,2/12/2015 4:01:28 PM,11:01:28,2.0.10.147,72,,,,,,18,1,18,,,,2,,,g,,0.253,,,9.09,,,29.11,,,,,,TrialProc1,,,,vowel 1,vowel 2,2,266,380832,Block2,g2_f0_9_09_f2_29_11_dur_0_253_num_556.wav,,,,
v4_BCL_f2_g,13,1,<?xml version="1.0"?>\n<Clock xmlns:dt="urn:schemas-microsoft-com:datatypes"><Description dt:dt="string">E-Prime Primary Realtime Clock</Description><StartTime><Timestamp dt:dt="int">0</Timestamp><DateUtc dt:dt="string">2015-02-12T16:01:28Z</DateUtc></StartTime><FrequencyChanges><FrequencyChange><Frequency dt:dt="r8">2327520000</Frequency><Timestamp dt:dt="r8">1635555120822</Timestamp><Current dt:dt="r8">0</Current><DateUtc dt:dt="string">2015-02-12T16:01:28Z</DateUtc></FrequencyChange></FrequencyChanges></Clock>\n,v4_BCL_f2_g-13-1,60.001,1.0.0.238,1,-359777857,2.0.10.242,2.0.10.242,02-12-2015,2/12/2015 4:01:28 PM,11:01:28,2.0.10.147,73,,,,,,19,1,19,,,,2,,,g,,0.251,,,7.92,,,29.95,,,,,,TrialProc1,,,,vowel 1,vowel 2,2,301,381951,Block2,g2_f0_7_92_f2_29_95_dur_0_251_num_589.wav,,,,
v4_BCL_f2_g,13,1,<?xml version="1.0"?>\n<Clock xmlns:dt="urn:schemas-microsoft-com:datatypes"><Description dt:dt="string">E-Prime Primary Realtime Clock</Description><StartTime><Timestamp dt:dt="int">0</Timestamp><DateUtc dt:dt="string">2015-02-12T16:01:28Z</DateUtc></StartTime><FrequencyChanges><FrequencyChange><Frequency dt:dt="r8">2327520000</Frequency><Timestamp dt:dt="r8">1635555120822</Timestamp><Current dt:dt="r8">0</Current><DateUtc dt:dt="string">2015-02-12T16:01:28Z</DateUtc></FrequencyChange></FrequencyChanges></Clock>\n,v4_BCL_f2_g-13-1,60.001,1.0.0.238,1,-359777857,2.0.10.242,2.0.10.242,02-12-2015,2/12/2015 4:01:28 PM,11:01:28,2.0.10.147,74,,,,,,20,1,20,,,,1,,,g,,0.251,,,9.6,,,30.54,,,,,,TrialProc1,,,,vowel 1,vowel 2,1,167,382933,Block2,g1_f0_9_60_f2_30_54_dur_0_251_num_286.wav,,,,
v4_BCL_f2_g,13,1,<?xml version="1.0"?>\n<Clock xmlns:dt="urn:schemas-microsoft-com:datatypes"><Description dt:dt="string">E-Prime Primary Realtime Clock</Description><StartTime><Timestamp dt:dt="int">0</Timestamp><DateUtc dt:dt="string">2015-02-12T16:01:28Z</DateUtc></StartTime><FrequencyChanges><FrequencyChange><Frequency dt:dt="r8">2327520000</Frequency><Timestamp dt:dt="r8">1635555120822</Timestamp><Current dt:dt="r8">0</Current><DateUtc dt:dt="string">2015-02-12T16:01:28Z</DateUtc></FrequencyChange></FrequencyChanges></Clock>\n,v4_BCL_f2_g-13-1,60.001,1.0.0.238,1,-359777857,2.0.10.242,2.0.10.242,02-12-2015,2/12/2015 4:01:28 PM,11:01:28,2.0.10.147,75,,,,,,21,1,21,,,,1,,,g,,0.246,,,9.08,,,31.6,,,,,,TrialProc1,,,,vowel 1,vowel 2,1,305,384055,Block2,g1_f0_9_08_f2_31_60_dur_0_246_num_252.wav,,,,
v4_BCL_f2_g,13,1,<?xml version="1.0"?>\n<Clock xmlns:dt="urn:schemas-microsoft-com:datatypes"><Description dt:dt="string">E-Prime Primary Realtime Clock</Description><StartTime><Timestamp dt:dt="int">0</Timestamp><DateUtc dt:dt="string">2015-02-12T16:01:28Z</DateUtc></StartTime><FrequencyChanges><FrequencyChange><Frequency dt:dt="r8">2327520000</Frequency><Timestamp dt:dt="r8">1635555120822</Timestamp><Current dt:dt="r8">0</Current><DateUtc dt:dt="string">2015-02-12T16:01:28Z</DateUtc></FrequencyChange></FrequencyChanges></Clock>\n,v4_BCL_f2_g-13-1,60.001,1.0.0.238,1,-359777857,2.0.10.242,2.0.10.242,02-12-2015,2/12/2015 4:01:28 PM,11:01:28,2.0.10.147,76,,,,,,22,1,22,,,,1,,,g,,0.25,,,9.32,,,31.61,,,,,,TrialProc1,,,,vowel 1,vowel 2,1,385,385251,Block2,g1_f0_9_32_f2_31_61_dur_0_250_num_260.wav,,,,
v4_BCL_f2_g,13,1,<?xml version="1.0"?>\n<Clock xmlns:dt="urn:schemas-microsoft-com:datatypes"><Description dt:dt="string">E-Prime Primary Realtime Clock</Description><StartTime><Timestamp dt:dt="int">0</Timestamp><DateUtc dt:dt="string">2015-02-12T16:01:28Z</DateUtc></StartTime><FrequencyChanges><FrequencyChange><Frequency dt:dt="r8">2327520000</Frequency><Timestamp dt:dt="r8">1635555120822</Timestamp><Current dt:dt="r8">0</Current><DateUtc dt:dt="string">2015-02-12T16:01:28Z</DateUtc></FrequencyChange></FrequencyChanges></Clock>\n,v4_BCL_f2_g-13-1,60.001,1.0.0.238,1,-359777857,2.0.10.242,2.0.10.242,02-12-2015,2/12/2015 4:01:28 PM,11:01:28,2.0.10.147,77,,,,,,23,1,23,,,,1,,,g,,0.252,,,9.02,,,31.38,,,,,,TrialProc1,,,,vowel 1,vowel 2,1,572,386638,Block2,g1_f0_9_02_f2_31_38_dur_0_252_num_249.wav,,,,
v4_BCL_f2_g,13,1,<?xml version="1.0"?>\n<Clock xmlns:dt="urn:schemas-microsoft-com:datatypes"><Description dt:dt="string">E-Prime Primary Realtime Clock</Description><StartTime><Timestamp dt:dt="int">0</Timestamp><DateUtc dt:dt="string">2015-02-12T16:01:28Z</DateUtc></StartTime><FrequencyChanges><FrequencyChange><Frequency dt:dt="r8">2327520000</Frequency><Timestamp dt:dt="r8">1635555120822</Timestamp><Current dt:dt="r8">0</Current><DateUtc dt:dt="string">2015-02-12T16:01:28Z</DateUtc></FrequencyChange></FrequencyChanges></Clock>\n,v4_BCL_f2_g-13-1,60.001,1.0.0.238,1,-359777857,2.0.10.242,2.0.10.242,02-12-2015,2/12/2015 4:01:28 PM,11:01:28,2.0.10.147,78,,,,,,24,1,24,,,,2,,,g,,0.252,,,8.68,,,29.16,,,,,,TrialProc1,,,,vowel 1,vowel 2,2,623,388073,Block2,g2_f0_8_68_f2_29_16_dur_0_252_num_559.wav,,,,
v4_BCL_f2_g,13,1,<?xml version="1.0"?>\n<Clock xmlns:dt="urn:schemas-microsoft-com:datatypes"><Description dt:dt="string">E-Prime Primary Realtime Clock</Description><StartTime><Timestamp dt:dt="int">0</Timestamp><DateUtc dt:dt="string">2015-02-12T16:01:28Z</DateUtc></StartTime><FrequencyChanges><FrequencyChange><Frequency dt:dt="r8">2327520000</Frequency><Timestamp dt:dt="r8">1635555120822</Timestamp><Current dt:dt="r8">0</Current><DateUtc dt:dt="string">2015-02-12T16:01:28Z</DateUtc></FrequencyChange></FrequencyChanges></Clock>\n,v4_BCL_f2_g-13-1,60.001,1.0.0.238,1,-359777857,2.0.10.242,2.0.10.242,02-12-2015,2/12/2015 4:01:28 PM,11:01:28,2.0.10.147,79,,,,,,25,1,25,,,,2,,,g,,0.247,,,8.62,,,29.65,,,,,,TrialProc1,,,,vowel 1,vowel 2,2,534,389417,Block2,g2_f0_8_62_f2_29_65_dur_0_247_num_570.wav,,,,
v4_BCL_f2_g,13,1,<?xml version="1.0"?>\n<Clock xmlns:dt="urn:schemas-microsoft-com:datatypes"><Description dt:dt="string">E-Prime Primary Realtime Clock</Description><StartTime><Timestamp dt:dt="int">0</Timestamp><DateUtc dt:dt="string">2015-02-12T16:01:28Z</DateUtc></StartTime><FrequencyChanges><FrequencyChange><Frequency dt:dt="r8">2327520000</Frequency><Timestamp dt:dt="r8">1635555120822</Timestamp><Current dt:dt="r8">0</Current><DateUtc dt:dt="string">2015-02-12T16:01:28Z</DateUtc></FrequencyChange></FrequencyChanges></Clock>\n,v4_BCL_f2_g-13-1,60.001,1.0.0.238,1,-359777857,2.0.10.242,2.0.10.242,02-12-2015,2/12/2015 4:01:28 PM,11:01:28,2.0.10.147,80,,,,,,26,1,26,,,,2,,,g,,0.244,,,8.55,,,29.47,,,,,,TrialProc1,,,,vowel 1,vowel 2,2,355,390588,Block2,g2_f0_8_55_f2_29_47_dur_0_244_num_536.wav,,,,
v4_BCL_f2_g,13,1,<?xml version="1.0"?>\n<Clock xmlns:dt="urn:schemas-microsoft-com:datatypes"><Description dt:dt="string">E-Prime Primary Realtime Clock</Description><StartTime><Timestamp dt:dt="int">0</Timestamp><DateUtc dt:dt="string">2015-02-12T16:01:28Z</DateUtc></StartTime><FrequencyChanges><FrequencyChange><Frequency dt:dt="r8">2327520000</Frequency><Timestamp dt:dt="r8">1635555120822</Timestamp><Current dt:dt="r8">0</Current><DateUtc dt:dt="string">2015-02-12T16:01:28Z</DateUtc></FrequencyChange></FrequencyChanges></Clock>\n,v4_BCL_f2_g-13-1,60.001,1.0.0.238,1,-359777857,2.0.10.242,2.0.10.242,02-12-2015,2/12/2015 4:01:28 PM,11:01:28,2.0.10.147,81,,,,,,27,1,27,,,,1,,,g,,0.247,,,9.49,,,30.56,,,,,,TrialProc1,,,,vowel 1,vowel 2,1,387,391787,Block2,g1_f0_9_49_f2_30_56_dur_0_247_num_212.wav,,,,
v4_BCL_f2_g,13,1,<?xml version="1.0"?>\n<Clock xmlns:dt="urn:schemas-microsoft-com:datatypes"><Description dt:dt="string">E-Prime Primary Realtime Clock</Description><StartTime><Timestamp dt:dt="int">0</Timestamp><DateUtc dt:dt="string">2015-02-12T16:01:28Z</DateUtc></StartTime><FrequencyChanges><FrequencyChange><Frequency dt:dt="r8">2327520000</Frequency><Timestamp dt:dt="r8">1635555120822</Timestamp><Current dt:dt="r8">0</Current><DateUtc dt:dt="string">2015-02-12T16:01:28Z</DateUtc></FrequencyChange></FrequencyChanges></Clock>\n,v4_BCL_f2_g-13-1,60.001,1.0.0.238,1,-359777857,2.0.10.242,2.0.10.242,02-12-2015,2/12/2015 4:01:28 PM,11:01:28,2.0.10.147,82,,,,,,28,1,28,,,,2,,,g,,0.249,,,9.36,,,29.1,,,,,,TrialProc1,,,,vowel 1,vowel 2,1,557,393173,Block2,g2_f0_9_36_f2_29_10_dur_0_249_num_563.wav,,,,
v4_BCL_f2_g,13,1,<?xml version="1.0"?>\n<Clock xmlns:dt="urn:schemas-microsoft-com:datatypes"><Description dt:dt="string">E-Prime Primary Realtime Clock</Description><StartTime><Timestamp dt:dt="int">0</Timestamp><DateUtc dt:dt="string">2015-02-12T16:01:28Z</DateUtc></StartTime><FrequencyChanges><FrequencyChange><Frequency dt:dt="r8">2327520000</Frequency><Timestamp dt:dt="r8">1635555120822</Timestamp><Current dt:dt="r8">0</Current><DateUtc dt:dt="string">2015-02-12T16:01:28Z</DateUtc></FrequencyChange></FrequencyChanges></Clock>\n,v4_BCL_f2_g-13-1,60.001,1.0.0.238,1,-359777857,2.0.10.242,2.0.10.242,02-12-2015,2/12/2015 4:01:28 PM,11:01:28,2.0.10.147,83,,,,,,29,1,29,,,,1,,,g,,0.25,,,9.24,,,31.62,,,,,,TrialProc1,,,,vowel 1,vowel 2,1,761,394744,Block2,g1_f0_9_24_f2_31_62_dur_0_250_num_245.wav,,,,
v4_BCL_f2_g,13,1,<?xml version="1.0"?>\n<Clock xmlns:dt="urn:schemas-microsoft-com:datatypes"><Description dt:dt="string">E-Prime Primary Realtime Clock</Description><StartTime><Timestamp dt:dt="int">0</Timestamp><DateUtc dt:dt="string">2015-02-12T16:01:28Z</DateUtc></StartTime><FrequencyChanges><FrequencyChange><Frequency dt:dt="r8">2327520000</Frequency><Timestamp dt:dt="r8">1635555120822</Timestamp><Current dt:dt="r8">0</Current><DateUtc dt:dt="string">2015-02-12T16:01:28Z</DateUtc></FrequencyChange></FrequencyChanges></Clock>\n,v4_BCL_f2_g-13-1,60.001,1.0.0.238,1,-359777857,2.0.10.242,2.0.10.242,02-12-2015,2/12/2015 4:01:28 PM,11:01:28,2.0.10.147,84,,,,,,30,1,30,,,,1,,,g,,0.255,,,9.84,,,30.95,,,,,,TrialProc1,,,,vowel 1,vowel 2,1,212,395762,Block2,g1_f0_9_84_f2_30_95_dur_0_255_num_273.wav,,,,
v4_BCL_f2_g,13,1,<?xml version="1.0"?>\n<Clock xmlns:dt="urn:schemas-microsoft-com:datatypes"><Description dt:dt="string">E-Prime Primary Realtime Clock</Description><StartTime><Timestamp dt:dt="int">0</Timestamp><DateUtc dt:dt="string">2015-02-12T16:01:28Z</DateUtc></StartTime><FrequencyChanges><FrequencyChange><Frequency dt:dt="r8">2327520000</Frequency><Timestamp dt:dt="r8">1635555120822</Timestamp><Current dt:dt="r8">0</Current><DateUtc dt:dt="string">2015-02-12T16:01:28Z</DateUtc></FrequencyChange></FrequencyChanges></Clock>\n,v4_BCL_f2_g-13-1,60.001,1.0.0.238,1,-359777857,2.0.10.242,2.0.10.242,02-12-2015,2/12/2015 4:01:28 PM,11:01:28,2.0.10.147,85,,,,,,31,1,31,,,,1,,,g,,0.248,,,9.1,,,30.84,,,,,,TrialProc1,,,,vowel 1,vowel 2,2,627,397193,Block2,g1_f0_9_10_f2_30_84_dur_0_248_num_232.wav,,,,
v4_BCL_f2_g,13,1,<?xml version="1.0"?>\n<Clock xmlns:dt="urn:schemas-microsoft-com:datatypes"><Description dt:dt="string">E-Prime Primary Realtime Clock</Description><StartTime><Timestamp dt:dt="int">0</Timestamp><DateUtc dt:dt="string">2015-02-12T16:01:28Z</DateUtc></StartTime><FrequencyChanges><FrequencyChange><Frequency dt:dt="r8">2327520000</Frequency><Timestamp dt:dt="r8">1635555120822</Timestamp><Current dt:dt="r8">0</Current><DateUtc dt:dt="string">2015-02-12T16:01:28Z</DateUtc></FrequencyChange></FrequencyChanges></Clock>\n,v4_BCL_f2_g-13-1,60.001,1.0.0.238,1,-359777857,2.0.10.242,2.0.10.242,02-12-2015,2/12/2015 4:01:28 PM,11:01:28,2.0.10.147,86,,,,,,32,1,32,,,,1,,,g,,0.257,,,8.55,,,31.79,,,,,,TrialProc1,,,,vowel 1,vowel 2,2,466,398466,Block2,g1_f0_8_55_f2_31_79_dur_0_257_num_247.wav,,,,
v4_BCL_f2_g,13,1,<?xml version="1.0"?>\n<Clock xmlns:dt="urn:schemas-microsoft-com:datatypes"><Description dt:dt="string">E-Prime Primary Realtime Clock</Description><StartTime><Timestamp dt:dt="int">0</Timestamp><DateUtc dt:dt="string">2015-02-12T16:01:28Z</DateUtc></StartTime><FrequencyChanges><FrequencyChange><Frequency dt:dt="r8">2327520000</Frequency><Timestamp dt:dt="r8">1635555120822</Timestamp><Current dt:dt="r8">0</Current><DateUtc dt:dt="string">2015-02-12T16:01:28Z</DateUtc></FrequencyChange></FrequencyChanges></Clock>\n,v4_BCL_f2_g-13-1,60.001,1.0.0.238,1,-359777857,2.0.10.242,2.0.10.242,02-12-2015,2/12/2015 4:01:28 PM,11:01:28,2.0.10.147,87,,,,,,33,1,33,,,,2,,,g,,0.247,,,8.92,,,29.35,,,,,,TrialProc1,,,,vowel 1,vowel 2,1,393,399676,Block2,g2_f0_8_92_f2_29_35_dur_0_247_num_578.wav,,,,
v4_BCL_f2_g,13,1,<?xml version="1.0"?>\n<Clock xmlns:dt="urn:schemas-microsoft-com:datatypes"><Description dt:dt="string">E-Prime Primary Realtime Clock</Description><StartTime><Timestamp dt:dt="int">0</Timestamp><DateUtc dt:dt="string">2015-02-12T16:01:28Z</DateUtc></StartTime><FrequencyChanges><FrequencyChange><Frequency dt:dt="r8">2327520000</Frequency><Timestamp dt:dt="r8">1635555120822</Timestamp><Current dt:dt="r8">0</Current><DateUtc dt:dt="string">2015-02-12T16:01:28Z</DateUtc></FrequencyChange></FrequencyChanges></Clock>\n,v4_BCL_f2_g-13-1,60.001,1.0.0.238,1,-359777857,2.0.10.242,2.0.10.242,02-12-2015,2/12/2015 4:01:28 PM,11:01:28,2.0.10.147,88,,,,,,34,1,34,,,,2,,,g,,0.249,,,8.26,,,29.92,,,,,,TrialProc1,,,,vowel 1,vowel 2,1,405,400888,Block2,g2_f0_8_26_f2_29_92_dur_0_249_num_577.wav,,,,
v4_BCL_f2_g,13,1,<?xml version="1.0"?>\n<Clock xmlns:dt="urn:schemas-microsoft-com:datatypes"><Description dt:dt="string">E-Prime Primary Realtime Clock</Description><StartTime><Timestamp dt:dt="int">0</Timestamp><DateUtc dt:dt="string">2015-02-12T16:01:28Z</DateUtc></StartTime><FrequencyChanges><FrequencyChange><Frequency dt:dt="r8">2327520000</Frequency><Timestamp dt:dt="r8">1635555120822</Timestamp><Current dt:dt="r8">0</Current><DateUtc dt:dt="string">2015-02-12T16:01:28Z</DateUtc></FrequencyChange></FrequencyChanges></Clock>\n,v4_BCL_f2_g-13-1,60.001,1.0.0.238,1,-359777857,2.0.10.242,2.0.10.242,02-12-2015,2/12/2015 4:01:28 PM,11:01:28,2.0.10.147,89,,,,,,35,1,35,,,,1,,,g,,0.254,,,8.58,,,31.4,,,,,,TrialProc1,,,,vowel 1,vowel 2,2,191,401907,Block2,g1_f0_8_58_f2_31_40_dur_0_254_num_229.wav,,,,
v4_BCL_f2_g,13,1,<?xml version="1.0"?>\n<Clock xmlns:dt="urn:schemas-microsoft-com:datatypes"><Description dt:dt="string">E-Prime Primary Realtime Clock</Description><StartTime><Timestamp dt:dt="int">0</Timestamp><DateUtc dt:dt="string">2015-02-12T16:01:28Z</DateUtc></StartTime><FrequencyChanges><FrequencyChange><Frequency dt:dt="r8">2327520000</Frequency><Timestamp dt:dt="r8">1635555120822</Timestamp><Current dt:dt="r8">0</Current><DateUtc dt:dt="string">2015-02-12T16:01:28Z</DateUtc></FrequencyChange></FrequencyChanges></Clock>\n,v4_BCL_f2_g-13-1,60.001,1.0.0.238,1,-359777857,2.0.10.242,2.0.10.242,02-12-2015,2/12/2015 4:01:28 PM,11:01:28,2.0.10.147,90,,,,,,36,1,36,,,,2,,,g,,0.251,,,9.32,,,29.64,,,,,,TrialProc1,,,,vowel 1,vowel 2,1,500,403216,Block2,g2_f0_9_32_f2_29_64_dur_0_251_num_503.wav,,,,
v4_BCL_f2_g,13,1,<?xml version="1.0"?>\n<Clock xmlns:dt="urn:schemas-microsoft-com:datatypes"><Description dt:dt="string">E-Prime Primary Realtime Clock</Description><StartTime><Timestamp dt:dt="int">0</Timestamp><DateUtc dt:dt="string">2015-02-12T16:01:28Z</DateUtc></StartTime><FrequencyChanges><FrequencyChange><Frequency dt:dt="r8">2327520000</Frequency><Timestamp dt:dt="r8">1635555120822</Timestamp><Current dt:dt="r8">0</Current><DateUtc dt:dt="string">2015-02-12T16:01:28Z</DateUtc></FrequencyChange></FrequencyChanges></Clock>\n,v4_BCL_f2_g-13-1,60.001,1.0.0.238,1,-359777857,2.0.10.242,2.0.10.242,02-12-2015,2/12/2015 4:01:28 PM,11:01:28,2.0.10.147,91,,,,,,37,1,37,,,,1,,,g,,0.248,,,10.15,,,30.34,,,,,,TrialProc1,,,,vowel 1,vowel 2,1,216,404249,Block2,g1_f0_10_15_f2_30_34_dur_0_248_num_219.wav,,,,
v4_BCL_f2_g,13,1,<?xml version="1.0"?>\n<Clock xmlns:dt="urn:schemas-microsoft-com:datatypes"><Description dt:dt="string">E-Prime Primary Realtime Clock</Description><StartTime><Timestamp dt:dt="int">0</Timestamp><DateUtc dt:dt="string">2015-02-12T16:01:28Z</DateUtc></StartTime><FrequencyChanges><FrequencyChange><Frequency dt:dt="r8">2327520000</Frequency><Timestamp dt:dt="r8">1635555120822</Timestamp><Current dt:dt="r8">0</Current><DateUtc dt:dt="string">2015-02-12T16:01:28Z</DateUtc></FrequencyChange></FrequencyChanges></Clock>\n,v4_BCL_f2_g-13-1,60.001,1.0.0.238,1,-359777857,2.0.10.242,2.0.10.242,02-12-2015,2/12/2015 4:01:28 PM,11:01:28,2.0.10.147,92,,,,,,38,1,38,,,,1,,,g,,0.253,,,9.51,,,30.92,,,,,,TrialProc1,,,,vowel 1,vowel 2,1,391,405457,Block2,g1_f0_9_51_f2_30_92_dur_0_253_num_214.wav,,,,
v4_BCL_f2_g,13,1,<?xml version="1.0"?>\n<Clock xmlns:dt="urn:schemas-microsoft-com:datatypes"><Description dt:dt="string">E-Prime Primary Realtime Clock</Description><StartTime><Timestamp dt:dt="int">0</Timestamp><DateUtc dt:dt="string">2015-02-12T16:01:28Z</DateUtc></StartTime><FrequencyChanges><FrequencyChange><Frequency dt:dt="r8">2327520000</Frequency><Timestamp dt:dt="r8">1635555120822</Timestamp><Current dt:dt="r8">0</Current><DateUtc dt:dt="string">2015-02-12T16:01:28Z</DateUtc></FrequencyChange></FrequencyChanges></Clock>\n,v4_BCL_f2_g-13-1,60.001,1.0.0.238,1,-359777857,2.0.10.242,2.0.10.242,02-12-2015,2/12/2015 4:01:28 PM,11:01:28,2.0.10.147,93,,,,,,39,1,39,,,,2,,,g,,0.25,,,9.45,,,29.43,,,,,,TrialProc1,,,,vowel 1,vowel 2,1,353,406619,Block2,g2_f0_9_45_f2_29_43_dur_0_250_num_564.wav,,,,
v4_BCL_f2_g,13,1,<?xml version="1.0"?>\n<Clock xmlns:dt="urn:schemas-microsoft-com:datatypes"><Description dt:dt="string">E-Prime Primary Realtime Clock</Description><StartTime><Timestamp dt:dt="int">0</Timestamp><DateUtc dt:dt="string">2015-02-12T16:01:28Z</DateUtc></StartTime><FrequencyChanges><FrequencyChange><Frequency dt:dt="r8">2327520000</Frequency><Timestamp dt:dt="r8">1635555120822</Timestamp><Current dt:dt="r8">0</Current><DateUtc dt:dt="string">2015-02-12T16:01:28Z</DateUtc></FrequencyChange></FrequencyChanges></Clock>\n,v4_BCL_f2_g-13-1,60.001,1.0.0.238,1,-359777857,2.0.10.242,2.0.10.242,02-12-2015,2/12/2015 4:01:28 PM,11:01:28,2.0.10.147,94,,,,,,40,1,40,,,,2,,,g,,0.248,,,8.63,,,28.8,,,,,,TrialProc1,,,,vowel 1,vowel 2,2,594,408027,Block2,g2_f0_8_63_f2_28_80_dur_0_248_num_513.wav,,,,
v4_BCL_f2_g,13,1,<?xml version="1.0"?>\n<Clock xmlns:dt="urn:schemas-microsoft-com:datatypes"><Description dt:dt="string">E-Prime Primary Realtime Clock</Description><StartTime><Timestamp dt:dt="int">0</Timestamp><DateUtc dt:dt="string">2015-02-12T16:01:28Z</DateUtc></StartTime><FrequencyChanges><FrequencyChange><Frequency dt:dt="r8">2327520000</Frequency><Timestamp dt:dt="r8">1635555120822</Timestamp><Current dt:dt="r8">0</Current><DateUtc dt:dt="string">2015-02-12T16:01:28Z</DateUtc></FrequencyChange></FrequencyChanges></Clock>\n,v4_BCL_f2_g-13-1,60.001,1.0.0.238,1,-359777857,2.0.10.242,2.0.10.242,02-12-2015,2/12/2015 4:01:28 PM,11:01:28,2.0.10.147,95,,,,,,41,1,41,,,,2,,,g,,0.251,,,8.43,,,29.36,,,,,,TrialProc1,,,,vowel 1,vowel 2,2,636,409469,Block2,g2_f0_8_43_f2_29_36_dur_0_251_num_535.wav,,,,
v4_BCL_f2_g,13,1,<?xml version="1.0"?>\n<Clock xmlns:dt="urn:schemas-microsoft-com:datatypes"><Description dt:dt="string">E-Prime Primary Realtime Clock</Description><StartTime><Timestamp dt:dt="int">0</Timestamp><DateUtc dt:dt="string">2015-02-12T16:01:28Z</DateUtc></StartTime><FrequencyChanges><FrequencyChange><Frequency dt:dt="r8">2327520000</Frequency><Timestamp dt:dt="r8">1635555120822</Timestamp><Current dt:dt="r8">0</Current><DateUtc dt:dt="string">2015-02-12T16:01:28Z</DateUtc></FrequencyChange></FrequencyChanges></Clock>\n,v4_BCL_f2_g-13-1,60.001,1.0.0.238,1,-359777857,2.0.10.242,2.0.10.242,02-12-2015,2/12/2015 4:01:28 PM,11:01:28,2.0.10.147,96,,,,,,42,1,42,,,,1,,,g,,0.251,,,9.15,,,31.7,,,,,,TrialProc1,,,,vowel 1,vowel 2,1,487,410770,Block2,g1_f0_9_15_f2_31_70_dur_0_251_num_263.wav,,,,
v4_BCL_f2_g,13,1,<?xml version="1.0"?>\n<Clock xmlns:dt="urn:schemas-microsoft-com:datatypes"><Description dt:dt="string">E-Prime Primary Realtime Clock</Description><StartTime><Timestamp dt:dt="int">0</Timestamp><DateUtc dt:dt="string">2015-02-12T16:01:28Z</DateUtc></StartTime><FrequencyChanges><FrequencyChange><Frequency dt:dt="r8">2327520000</Frequency><Timestamp dt:dt="r8">1635555120822</Timestamp><Current dt:dt="r8">0</Current><DateUtc dt:dt="string">2015-02-12T16:01:28Z</DateUtc></FrequencyChange></FrequencyChanges></Clock>\n,v4_BCL_f2_g-13-1,60.001,1.0.0.238,1,-359777857,2.0.10.242,2.0.10.242,02-12-2015,2/12/2015 4:01:28 PM,11:01:28,2.0.10.147,97,,,,,,43,1,43,,,,2,,,g,,0.251,,,9.07,,,29.67,,,,,,TrialProc1,,,,vowel 1,vowel 2,1,300,411883,Block2,g2_f0_9_07_f2_29_67_dur_0_251_num_516.wav,,,,
v4_BCL_f2_g,13,1,<?xml version="1.0"?>\n<Clock xmlns:dt="urn:schemas-microsoft-com:datatypes"><Description dt:dt="string">E-Prime Primary Realtime Clock</Description><StartTime><Timestamp dt:dt="int">0</Timestamp><DateUtc dt:dt="string">2015-02-12T16:01:28Z</DateUtc></StartTime><FrequencyChanges><FrequencyChange><Frequency dt:dt="r8">2327520000</Frequency><Timestamp dt:dt="r8">1635555120822</Timestamp><Current dt:dt="r8">0</Current><DateUtc dt:dt="string">2015-02-12T16:01:28Z</DateUtc></FrequencyChange></FrequencyChanges></Clock>\n,v4_BCL_f2_g-13-1,60.001,1.0.0.238,1,-359777857,2.0.10.242,2.0.10.242,02-12-2015,2/12/2015 4:01:28 PM,11:01:28,2.0.10.147,98,,,,,,44,1,44,,,,2,,,g,,0.251,,,8.51,,,29.05,,,,,,TrialProc1,,,,vowel 1,vowel 2,2,410,413109,Block2,g2_f0_8_51_f2_29_05_dur_0_251_num_521.wav,,,,
v4_BCL_f2_g,13,1,<?xml version="1.0"?>\n<Clock xmlns:dt="urn:schemas-microsoft-com:datatypes"><Description dt:dt="string">E-Prime Primary Realtime Clock</Description><StartTime><Timestamp dt:dt="int">0</Timestamp><DateUtc dt:dt="string">2015-02-12T16:01:28Z</DateUtc></StartTime><FrequencyChanges><FrequencyChange><Frequency dt:dt="r8">2327520000</Frequency><Timestamp dt:dt="r8">1635555120822</Timestamp><Current dt:dt="r8">0</Current><DateUtc dt:dt="string">2015-02-12T16:01:28Z</DateUtc></FrequencyChange></FrequencyChanges></Clock>\n,v4_BCL_f2_g-13-1,60.001,1.0.0.238,1,-359777857,2.0.10.242,2.0.10.242,02-12-2015,2/12/2015 4:01:28 PM,11:01:28,2.0.10.147,99,,,,,,45,1,45,,,,1,,,g,,0.25,,,8.93,,,30.91,,,,,,TrialProc1,,,,vowel 1,vowel 2,1,603,414519,Block2,g1_f0_8_93_f2_30_91_dur_0_250_num_215.wav,,,,
v4_BCL_f2_g,13,1,<?xml version="1.0"?>\n<Clock xmlns:dt="urn:schemas-microsoft-com:datatypes"><Description dt:dt="string">E-Prime Primary Realtime Clock</Description><StartTime><Timestamp dt:dt="int">0</Timestamp><DateUtc dt:dt="string">2015-02-12T16:01:28Z</DateUtc></StartTime><FrequencyChanges><FrequencyChange><Frequency dt:dt="r8">2327520000</Frequency><Timestamp dt:dt="r8">1635555120822</Timestamp><Current dt:dt="r8">0</Current><DateUtc dt:dt="string">2015-02-12T16:01:28Z</DateUtc></FrequencyChange></FrequencyChanges></Clock>\n,v4_BCL_f2_g-13-1,60.001,1.0.0.238,1,-359777857,2.0.10.242,2.0.10.242,02-12-2015,2/12/2015 4:01:28 PM,11:01:28,2.0.10.147,100,,,,,,46,1,46,,,,2,,,g,,0.247,,,10,,,28.67,,,,,,TrialProc1,,,,vowel 1,vowel 2,1,273,415606,Block2,g2_f0_10_00_f2_28_67_dur_0_247_num_527.wav,,,,
v4_BCL_f2_g,13,1,<?xml version="1.0"?>\n<Clock xmlns:dt="urn:schemas-microsoft-com:datatypes"><Description dt:dt="string">E-Prime Primary Realtime Clock</Description><StartTime><Timestamp dt:dt="int">0</Timestamp><DateUtc dt:dt="string">2015-02-12T16:01:28Z</DateUtc></StartTime><FrequencyChanges><FrequencyChange><Frequency dt:dt="r8">2327520000</Frequency><Timestamp dt:dt="r8">1635555120822</Timestamp><Current dt:dt="r8">0</Current><DateUtc dt:dt="string">2015-02-12T16:01:28Z</DateUtc></FrequencyChange></FrequencyChanges></Clock>\n,v4_BCL_f2_g-13-1,60.001,1.0.0.238,1,-359777857,2.0.10.242,2.0.10.242,02-12-2015,2/12/2015 4:01:28 PM,11:01:28,2.0.10.147,101,,,,,,47,1,47,,,,1,,,g,,0.249,,,10.75,,,30.3,,,,,,TrialProc1,,,,vowel 1,vowel 2,1,685,417101,Block2,g1_f0_10_75_f2_30_30_dur_0_249_num_227.wav,,,,
v4_BCL_f2_g,13,1,<?xml version="1.0"?>\n<Clock xmlns:dt="urn:schemas-microsoft-com:datatypes"><Description dt:dt="string">E-Prime Primary Realtime Clock</Description><StartTime><Timestamp dt:dt="int">0</Timestamp><DateUtc dt:dt="string">2015-02-12T16:01:28Z</DateUtc></StartTime><FrequencyChanges><FrequencyChange><Frequency dt:dt="r8">2327520000</Frequency><Timestamp dt:dt="r8">1635555120822</Timestamp><Current dt:dt="r8">0</Current><DateUtc dt:dt="string">2015-02-12T16:01:28Z</DateUtc></FrequencyChange></FrequencyChanges></Clock>\n,v4_BCL_f2_g-13-1,60.001,1.0.0.238,1,-359777857,2.0.10.242,2.0.10.242,02-12-2015,2/12/2015 4:01:28 PM,11:01:28,2.0.10.147,102,,,,,,48,1,48,,,,2,,,g,,0.255,,,8.52,,,28.92,,,,,,TrialProc1,,,,vowel 1,vowel 2,1,443,418359,Block2,g2_f0_8_52_f2_28_92_dur_0_255_num_574.wav,,,,
v4_BCL_f2_g,13,1,<?xml version="1.0"?>\n<Clock xmlns:dt="urn:schemas-microsoft-com:datatypes"><Description dt:dt="string">E-Prime Primary Realtime Clock</Description><StartTime><Timestamp dt:dt="int">0</Timestamp><DateUtc dt:dt="string">2015-02-12T16:01:28Z</DateUtc></StartTime><FrequencyChanges><FrequencyChange><Frequency dt:dt="r8">2327520000</Frequency><Timestamp dt:dt="r8">1635555120822</Timestamp><Current dt:dt="r8">0</Current><DateUtc dt:dt="string">2015-02-12T16:01:28Z</DateUtc></FrequencyChange></FrequencyChanges></Clock>\n,v4_BCL_f2_g-13-1,60.001,1.0.0.238,1,-359777857,2.0.10.242,2.0.10.242,02-12-2015,2/12/2015 4:01:28 PM,11:01:28,2.0.10.147,103,,,,,,49,1,49,,,,1,,,g,,0.248,,,8.64,,,31.38,,,,,,TrialProc1,,,,vowel 1,vowel 2,2,210,419393,Block2,g1_f0_8_64_f2_31_38_dur_0_248_num_284.wav,,,,
v4_BCL_f2_g,13,1,<?xml version="1.0"?>\n<Clock xmlns:dt="urn:schemas-microsoft-com:datatypes"><Description dt:dt="string">E-Prime Primary Realtime Clock</Description><StartTime><Timestamp dt:dt="int">0</Timestamp><DateUtc dt:dt="string">2015-02-12T16:01:28Z</DateUtc></StartTime><FrequencyChanges><FrequencyChange><Frequency dt:dt="r8">2327520000</Frequency><Timestamp dt:dt="r8">1635555120822</Timestamp><Current dt:dt="r8">0</Current><DateUtc dt:dt="string">2015-02-12T16:01:28Z</DateUtc></FrequencyChange></FrequencyChanges></Clock>\n,v4_BCL_f2_g-13-1,60.001,1.0.0.238,1,-359777857,2.0.10.242,2.0.10.242,02-12-2015,2/12/2015 4:01:28 PM,11:01:28,2.0.10.147,104,,,,,,50,1,50,,,,1,,,g,,0.253,,,9.31,,,30.85,,,,,,TrialProc1,,,,vowel 1,vowel 2,1,374,420573,Block2,g1_f0_9_31_f2_30_85_dur_0_253_num_270.wav,,,,
v4_BCL_f2_g,13,1,<?xml version="1.0"?>\n<Clock xmlns:dt="urn:schemas-microsoft-com:datatypes"><Description dt:dt="string">E-Prime Primary Realtime Clock</Description><StartTime><Timestamp dt:dt="int">0</Timestamp><DateUtc dt:dt="string">2015-02-12T16:01:28Z</DateUtc></StartTime><FrequencyChanges><FrequencyChange><Frequency dt:dt="r8">2327520000</Frequency><Timestamp dt:dt="r8">1635555120822</Timestamp><Current dt:dt="r8">0</Current><DateUtc dt:dt="string">2015-02-12T16:01:28Z</DateUtc></FrequencyChange></FrequencyChanges></Clock>\n,v4_BCL_f2_g-13-1,60.001,1.0.0.238,1,-359777857,2.0.10.242,2.0.10.242,02-12-2015,2/12/2015 4:01:28 PM,11:01:28,2.0.10.147,105,,,,,,51,1,51,,,,2,,,g,,0.249,,,8.07,,,29.2,,,,,,TrialProc1,,,,vowel 1,vowel 2,2,171,421554,Block2,g2_f0_8_07_f2_29_20_dur_0_249_num_597.wav,,,,
v4_BCL_f2_g,13,1,<?xml version="1.0"?>\n<Clock xmlns:dt="urn:schemas-microsoft-com:datatypes"><Description dt:dt="string">E-Prime Primary Realtime Clock</Description><StartTime><Timestamp dt:dt="int">0</Timestamp><DateUtc dt:dt="string">2015-02-12T16:01:28Z</DateUtc></StartTime><FrequencyChanges><FrequencyChange><Frequency dt:dt="r8">2327520000</Frequency><Timestamp dt:dt="r8">1635555120822</Timestamp><Current dt:dt="r8">0</Current><DateUtc dt:dt="string">2015-02-12T16:01:28Z</DateUtc></FrequencyChange></FrequencyChanges></Clock>\n,v4_BCL_f2_g-13-1,60.001,1.0.0.238,1,-359777857,2.0.10.242,2.0.10.242,02-12-2015,2/12/2015 4:01:28 PM,11:01:28,2.0.10.147,106,,,,,,52,1,52,,,,2,,,g,,0.246,,,8.6,,,29.73,,,,,,TrialProc1,,,,vowel 1,vowel 2,2,889,423272,Block2,g2_f0_8_60_f2_29_73_dur_0_246_num_575.wav,,,,
v4_BCL_f2_g,13,1,<?xml version="1.0"?>\n<Clock xmlns:dt="urn:schemas-microsoft-com:datatypes"><Description dt:dt="string">E-Prime Primary Realtime Clock</Description><StartTime><Timestamp dt:dt="int">0</Timestamp><DateUtc dt:dt="string">2015-02-12T16:01:28Z</DateUtc></StartTime><FrequencyChanges><FrequencyChange><Frequency dt:dt="r8">2327520000</Frequency><Timestamp dt:dt="r8">1635555120822</Timestamp><Current dt:dt="r8">0</Current><DateUtc dt:dt="string">2015-02-12T16:01:28Z</DateUtc></FrequencyChange></FrequencyChanges></Clock>\n,v4_BCL_f2_g-13-1,60.001,1.0.0.238,1,-359777857,2.0.10.242,2.0.10.242,02-12-2015,2/12/2015 4:01:28 PM,11:01:28,2.0.10.147,107,,,,,,53,1,53,,,,2,,,g,,0.252,,,9.4,,,29.22,,,,,,TrialProc1,,,,vowel 1,vowel 2,1,251,424350,Block2,g2_f0_9_40_f2_29_22_dur_0_252_num_511.wav,,,,
v4_BCL_f2_g,13,1,<?xml version="1.0"?>\n<Clock xmlns:dt="urn:schemas-microsoft-com:datatypes"><Description dt:dt="string">E-Prime Primary Realtime Clock</Description><StartTime><Timestamp dt:dt="int">0</Timestamp><DateUtc dt:dt="string">2015-02-12T16:01:28Z</DateUtc></StartTime><FrequencyChanges><FrequencyChange><Frequency dt:dt="r8">2327520000</Frequency><Timestamp dt:dt="r8">1635555120822</Timestamp><Current dt:dt="r8">0</Current><DateUtc dt:dt="string">2015-02-12T16:01:28Z</DateUtc></FrequencyChange></FrequencyChanges></Clock>\n,v4_BCL_f2_g-13-1,60.001,1.0.0.238,1,-359777857,2.0.10.242,2.0.10.242,02-12-2015,2/12/2015 4:01:28 PM,11:01:28,2.0.10.147,108,,,,,,54,1,54,,,,2,,,g,,0.25,,,9.4,,,29.08,,,,,,TrialProc1,,,,vowel 1,vowel 2,1,149,425331,Block2,g2_f0_9_40_f2_29_08_dur_0_250_num_562.wav,,,,
v4_BCL_f2_g,13,1,<?xml version="1.0"?>\n<Clock xmlns:dt="urn:schemas-microsoft-com:datatypes"><Description dt:dt="string">E-Prime Primary Realtime Clock</Description><StartTime><Timestamp dt:dt="int">0</Timestamp><DateUtc dt:dt="string">2015-02-12T16:01:28Z</DateUtc></StartTime><FrequencyChanges><FrequencyChange><Frequency dt:dt="r8">2327520000</Frequency><Timestamp dt:dt="r8">1635555120822</Timestamp><Current dt:dt="r8">0</Current><DateUtc dt:dt="string">2015-02-12T16:01:28Z</DateUtc></FrequencyChange></FrequencyChanges></Clock>\n,v4_BCL_f2_g-13-1,60.001,1.0.0.238,1,-359777857,2.0.10.242,2.0.10.242,02-12-2015,2/12/2015 4:01:28 PM,11:01:28,2.0.10.147,109,,,,,,55,1,55,,,,1,,,g,,0.254,,,9.42,,,31.37,,,,,,TrialProc1,,,,vowel 1,vowel 2,1,237,426369,Block2,g1_f0_9_42_f2_31_37_dur_0_254_num_248.wav,,,,
v4_BCL_f2_g,13,1,<?xml version="1.0"?>\n<Clock xmlns:dt="urn:schemas-microsoft-com:datatypes"><Description dt:dt="string">E-Prime Primary Realtime Clock</Description><StartTime><Timestamp dt:dt="int">0</Timestamp><DateUtc dt:dt="string">2015-02-12T16:01:28Z</DateUtc></StartTime><FrequencyChanges><FrequencyChange><Frequency dt:dt="r8">2327520000</Frequency><Timestamp dt:dt="r8">1635555120822</Timestamp><Current dt:dt="r8">0</Current><DateUtc dt:dt="string">2015-02-12T16:01:28Z</DateUtc></FrequencyChange></FrequencyChanges></Clock>\n,v4_BCL_f2_g-13-1,60.001,1.0.0.238,1,-359777857,2.0.10.242,2.0.10.242,02-12-2015,2/12/2015 4:01:28 PM,11:01:28,2.0.10.147,110,,,,,,56,1,56,,,,2,,,g,,0.245,,,7.8,,,30.48,,,,,,TrialProc1,,,,vowel 1,vowel 2,2,133,427315,Block2,g2_f0_7_80_f2_30_48_dur_0_245_num_550.wav,,,,
v4_BCL_f2_g,13,1,<?xml version="1.0"?>\n<Clock xmlns:dt="urn:schemas-microsoft-com:datatypes"><Description dt:dt="string">E-Prime Primary Realtime Clock</Description><StartTime><Timestamp dt:dt="int">0</Timestamp><DateUtc dt:dt="string">2015-02-12T16:01:28Z</DateUtc></StartTime><FrequencyChanges><FrequencyChange><Frequency dt:dt="r8">2327520000</Frequency><Timestamp dt:dt="r8">1635555120822</Timestamp><Current dt:dt="r8">0</Current><DateUtc dt:dt="string">2015-02-12T16:01:28Z</DateUtc></FrequencyChange></FrequencyChanges></Clock>\n,v4_BCL_f2_g-13-1,60.001,1.0.0.238,1,-359777857,2.0.10.242,2.0.10.242,02-12-2015,2/12/2015 4:01:28 PM,11:01:28,2.0.10.147,111,,,,,,57,1,57,,,,1,,,g,,0.251,,,8.38,,,31.58,,,,,,TrialProc1,,,,vowel 1,vowel 2,2,201,428333,Block2,g1_f0_8_38_f2_31_58_dur_0_251_num_264.wav,,,,
v4_BCL_f2_g,13,1,<?xml version="1.0"?>\n<Clock xmlns:dt="urn:schemas-microsoft-com:datatypes"><Description dt:dt="string">E-Prime Primary Realtime Clock</Description><StartTime><Timestamp dt:dt="int">0</Timestamp><DateUtc dt:dt="string">2015-02-12T16:01:28Z</DateUtc></StartTime><FrequencyChanges><FrequencyChange><Frequency dt:dt="r8">2327520000</Frequency><Timestamp dt:dt="r8">1635555120822</Timestamp><Current dt:dt="r8">0</Current><DateUtc dt:dt="string">2015-02-12T16:01:28Z</DateUtc></FrequencyChange></FrequencyChanges></Clock>\n,v4_BCL_f2_g-13-1,60.001,1.0.0.238,1,-359777857,2.0.10.242,2.0.10.242,02-12-2015,2/12/2015 4:01:28 PM,11:01:28,2.0.10.147,112,,,,,,58,1,58,,,,2,,,g,,0.25,,,8.48,,,29.72,,,,,,TrialProc1,,,,vowel 1,vowel 2,1,463,429612,Block2,g2_f0_8_48_f2_29_72_dur_0_250_num_552.wav,,,,
v4_BCL_f2_g,13,1,<?xml version="1.0"?>\n<Clock xmlns:dt="urn:schemas-microsoft-com:datatypes"><Description dt:dt="string">E-Prime Primary Realtime Clock</Description><StartTime><Timestamp dt:dt="int">0</Timestamp><DateUtc dt:dt="string">2015-02-12T16:01:28Z</DateUtc></StartTime><FrequencyChanges><FrequencyChange><Frequency dt:dt="r8">2327520000</Frequency><Timestamp dt:dt="r8">1635555120822</Timestamp><Current dt:dt="r8">0</Current><DateUtc dt:dt="string">2015-02-12T16:01:28Z</DateUtc></FrequencyChange></FrequencyChanges></Clock>\n,v4_BCL_f2_g-13-1,60.001,1.0.0.238,1,-359777857,2.0.10.242,2.0.10.242,02-12-2015,2/12/2015 4:01:28 PM,11:01:28,2.0.10.147,113,,,,,,59,1,59,,,,2,,,g,,0.249,,,9.64,,,29.11,,,,,,TrialProc1,,,,vowel 1,vowel 2,1,225,430641,Block2,g2_f0_9_64_f2_29_11_dur_0_249_num_584.wav,,,,
v4_BCL_f2_g,13,1,<?xml version="1.0"?>\n<Clock xmlns:dt="urn:schemas-microsoft-com:datatypes"><Description dt:dt="string">E-Prime Primary Realtime Clock</Description><StartTime><Timestamp dt:dt="int">0</Timestamp><DateUtc dt:dt="string">2015-02-12T16:01:28Z</DateUtc></StartTime><FrequencyChanges><FrequencyChange><Frequency dt:dt="r8">2327520000</Frequency><Timestamp dt:dt="r8">1635555120822</Timestamp><Current dt:dt="r8">0</Current><DateUtc dt:dt="string">2015-02-12T16:01:28Z</DateUtc></FrequencyChange></FrequencyChanges></Clock>\n,v4_BCL_f2_g-13-1,60.001,1.0.0.238,1,-359777857,2.0.10.242,2.0.10.242,02-12-2015,2/12/2015 4:01:28 PM,11:01:28,2.0.10.147,114,,,,,,60,1,60,,,,1,,,g,,0.248,,,9.52,,,30.47,,,,,,TrialProc1,,,,vowel 1,vowel 2,1,231,431680,Block2,g1_f0_9_52_f2_30_47_dur_0_248_num_256.wav,,,,
v4_BCL_f2_g,13,1,<?xml version="1.0"?>\n<Clock xmlns:dt="urn:schemas-microsoft-com:datatypes"><Description dt:dt="string">E-Prime Primary Realtime Clock</Description><StartTime><Timestamp dt:dt="int">0</Timestamp><DateUtc dt:dt="string">2015-02-12T16:01:28Z</DateUtc></StartTime><FrequencyChanges><FrequencyChange><Frequency dt:dt="r8">2327520000</Frequency><Timestamp dt:dt="r8">1635555120822</Timestamp><Current dt:dt="r8">0</Current><DateUtc dt:dt="string">2015-02-12T16:01:28Z</DateUtc></FrequencyChange></FrequencyChanges></Clock>\n,v4_BCL_f2_g-13-1,60.001,1.0.0.238,1,-359777857,2.0.10.242,2.0.10.242,02-12-2015,2/12/2015 4:01:28 PM,11:01:28,2.0.10.147,115,,,,,,61,1,61,,,,1,,,g,,0.251,,,8.94,,,31.61,,,,,,TrialProc1,,,,vowel 1,vowel 2,1,134,432633,Block2,g1_f0_8_94_f2_31_61_dur_0_251_num_268.wav,,,,
v4_BCL_f2_g,13,1,<?xml version="1.0"?>\n<Clock xmlns:dt="urn:schemas-microsoft-com:datatypes"><Description dt:dt="string">E-Prime Primary Realtime Clock</Description><StartTime><Timestamp dt:dt="int">0</Timestamp><DateUtc dt:dt="string">2015-02-12T16:01:28Z</DateUtc></StartTime><FrequencyChanges><FrequencyChange><Frequency dt:dt="r8">2327520000</Frequency><Timestamp dt:dt="r8">1635555120822</Timestamp><Current dt:dt="r8">0</Current><DateUtc dt:dt="string">2015-02-12T16:01:28Z</DateUtc></FrequencyChange></FrequencyChanges></Clock>\n,v4_BCL_f2_g-13-1,60.001,1.0.0.238,1,-359777857,2.0.10.242,2.0.10.242,02-12-2015,2/12/2015 4:01:28 PM,11:01:28,2.0.10.147,116,,,,,,62,1,62,,,,2,,,g,,0.251,,,8.72,,,29.77,,,,,,TrialProc1,,,,vowel 1,vowel 2,2,406,433855,Block2,g2_f0_8_72_f2_29_77_dur_0_251_num_588.wav,,,,
v4_BCL_f2_g,13,1,<?xml version="1.0"?>\n<Clock xmlns:dt="urn:schemas-microsoft-com:datatypes"><Description dt:dt="string">E-Prime Primary Realtime Clock</Description><StartTime><Timestamp dt:dt="int">0</Timestamp><DateUtc dt:dt="string">2015-02-12T16:01:28Z</DateUtc></StartTime><FrequencyChanges><FrequencyChange><Frequency dt:dt="r8">2327520000</Frequency><Timestamp dt:dt="r8">1635555120822</Timestamp><Current dt:dt="r8">0</Current><DateUtc dt:dt="string">2015-02-12T16:01:28Z</DateUtc></FrequencyChange></FrequencyChanges></Clock>\n,v4_BCL_f2_g-13-1,60.001,1.0.0.238,1,-359777857,2.0.10.242,2.0.10.242,02-12-2015,2/12/2015 4:01:28 PM,11:01:28,2.0.10.147,117,,,,,,63,1,63,,,,2,,,g,,0.244,,,7.96,,,29.7,,,,,,TrialProc1,,,,vowel 1,vowel 2,2,157,434823,Block2,g2_f0_7_96_f2_29_70_dur_0_244_num_549.wav,,,,
v4_BCL_f2_g,13,1,<?xml version="1.0"?>\n<Clock xmlns:dt="urn:schemas-microsoft-com:datatypes"><Description dt:dt="string">E-Prime Primary Realtime Clock</Description><StartTime><Timestamp dt:dt="int">0</Timestamp><DateUtc dt:dt="string">2015-02-12T16:01:28Z</DateUtc></StartTime><FrequencyChanges><FrequencyChange><Frequency dt:dt="r8">2327520000</Frequency><Timestamp dt:dt="r8">1635555120822</Timestamp><Current dt:dt="r8">0</Current><DateUtc dt:dt="string">2015-02-12T16:01:28Z</DateUtc></FrequencyChange></FrequencyChanges></Clock>\n,v4_BCL_f2_g-13-1,60.001,1.0.0.238,1,-359777857,2.0.10.242,2.0.10.242,02-12-2015,2/12/2015 4:01:28 PM,11:01:28,2.0.10.147,118,,,,,,64,1,64,,,,1,,,g,,0.257,,,8.31,,,31.45,,,,,,TrialProc1,,,,vowel 1,vowel 2,2,315,435947,Block2,g1_f0_8_31_f2_31_45_dur_0_257_num_254.wav,,,,
v4_BCL_f2_g,13,1,<?xml version="1.0"?>\n<Clock xmlns:dt="urn:schemas-microsoft-com:datatypes"><Description dt:dt="string">E-Prime Primary Realtime Clock</Description><StartTime><Timestamp dt:dt="int">0</Timestamp><DateUtc dt:dt="string">2015-02-12T16:01:28Z</DateUtc></StartTime><FrequencyChanges><FrequencyChange><Frequency dt:dt="r8">2327520000</Frequency><Timestamp dt:dt="r8">1635555120822</Timestamp><Current dt:dt="r8">0</Current><DateUtc dt:dt="string">2015-02-12T16:01:28Z</DateUtc></FrequencyChange></FrequencyChanges></Clock>\n,v4_BCL_f2_g-13-1,60.001,1.0.0.238,1,-359777857,2.0.10.242,2.0.10.242,02-12-2015,2/12/2015 4:01:28 PM,11:01:28,2.0.10.147,119,,,,,,65,1,65,,,,1,,,g,,0.252,,,9.18,,,31.4,,,,,,TrialProc1,,,,vowel 1,vowel 2,1,195,436961,Block2,g1_f0_9_18_f2_31_40_dur_0_252_num_210.wav,,,,
v4_BCL_f2_g,13,1,<?xml version="1.0"?>\n<Clock xmlns:dt="urn:schemas-microsoft-com:datatypes"><Description dt:dt="string">E-Prime Primary Realtime Clock</Description><StartTime><Timestamp dt:dt="int">0</Timestamp><DateUtc dt:dt="string">2015-02-12T16:01:28Z</DateUtc></StartTime><FrequencyChanges><FrequencyChange><Frequency dt:dt="r8">2327520000</Frequency><Timestamp dt:dt="r8">1635555120822</Timestamp><Current dt:dt="r8">0</Current><DateUtc dt:dt="string">2015-02-12T16:01:28Z</DateUtc></FrequencyChange></FrequencyChanges></Clock>\n,v4_BCL_f2_g-13-1,60.001,1.0.0.238,1,-359777857,2.0.10.242,2.0.10.242,02-12-2015,2/12/2015 4:01:28 PM,11:01:28,2.0.10.147,120,,,,,,66,1,66,,,,2,,,g,,0.247,,,8.56,,,29.07,,,,,,TrialProc1,,,,vowel 1,vowel 2,1,296,438078,Block2,g2_f0_8_56_f2_29_07_dur_0_247_num_506.wav,,,,
v4_BCL_f2_g,13,1,<?xml version="1.0"?>\n<Clock xmlns:dt="urn:schemas-microsoft-com:datatypes"><Description dt:dt="string">E-Prime Primary Realtime Clock</Description><StartTime><Timestamp dt:dt="int">0</Timestamp><DateUtc dt:dt="string">2015-02-12T16:01:28Z</DateUtc></StartTime><FrequencyChanges><FrequencyChange><Frequency dt:dt="r8">2327520000</Frequency><Timestamp dt:dt="r8">1635555120822</Timestamp><Current dt:dt="r8">0</Current><DateUtc dt:dt="string">2015-02-12T16:01:28Z</DateUtc></FrequencyChange></FrequencyChanges></Clock>\n,v4_BCL_f2_g-13-1,60.001,1.0.0.238,1,-359777857,2.0.10.242,2.0.10.242,02-12-2015,2/12/2015 4:01:28 PM,11:01:28,2.0.10.147,121,,,,,,67,1,67,,,,2,,,g,,0.251,,,8.11,,,30.16,,,,,,TrialProc1,,,,vowel 1,vowel 2,1,231,439130,Block2,g2_f0_8_11_f2_30_16_dur_0_251_num_565.wav,,,,
v4_BCL_f2_g,13,1,<?xml version="1.0"?>\n<Clock xmlns:dt="urn:schemas-microsoft-com:datatypes"><Description dt:dt="string">E-Prime Primary Realtime Clock</Description><StartTime><Timestamp dt:dt="int">0</Timestamp><DateUtc dt:dt="string">2015-02-12T16:01:28Z</DateUtc></StartTime><FrequencyChanges><FrequencyChange><Frequency dt:dt="r8">2327520000</Frequency><Timestamp dt:dt="r8">1635555120822</Timestamp><Current dt:dt="r8">0</Current><DateUtc dt:dt="string">2015-02-12T16:01:28Z</DateUtc></FrequencyChange></FrequencyChanges></Clock>\n,v4_BCL_f2_g-13-1,60.001,1.0.0.238,1,-359777857,2.0.10.242,2.0.10.242,02-12-2015,2/12/2015 4:01:28 PM,11:01:28,2.0.10.147,122,,,,,,68,1,68,,,,1,,,g,,0.247,,,10.38,,,30.36,,,,,,TrialProc1,,,,vowel 1,vowel 2,1,149,440098,Block2,g1_f0_10_38_f2_30_36_dur_0_247_num_261.wav,,,,
v4_BCL_f2_g,13,1,<?xml version="1.0"?>\n<Clock xmlns:dt="urn:schemas-microsoft-com:datatypes"><Description dt:dt="string">E-Prime Primary Realtime Clock</Description><StartTime><Timestamp dt:dt="int">0</Timestamp><DateUtc dt:dt="string">2015-02-12T16:01:28Z</DateUtc></StartTime><FrequencyChanges><FrequencyChange><Frequency dt:dt="r8">2327520000</Frequency><Timestamp dt:dt="r8">1635555120822</Timestamp><Current dt:dt="r8">0</Current><DateUtc dt:dt="string">2015-02-12T16:01:28Z</DateUtc></FrequencyChange></FrequencyChanges></Clock>\n,v4_BCL_f2_g-13-1,60.001,1.0.0.238,1,-359777857,2.0.10.242,2.0.10.242,02-12-2015,2/12/2015 4:01:28 PM,11:01:28,2.0.10.147,123,,,,,,69,1,69,,,,1,,,g,,0.25,,,10.24,,,30.02,,,,,,TrialProc1,,,,vowel 1,vowel 2,1,94,441010,Block2,g1_f0_10_24_f2_30_02_dur_0_250_num_295.wav,,,,
v4_BCL_f2_g,13,1,<?xml version="1.0"?>\n<Clock xmlns:dt="urn:schemas-microsoft-com:datatypes"><Description dt:dt="string">E-Prime Primary Realtime Clock</Description><StartTime><Timestamp dt:dt="int">0</Timestamp><DateUtc dt:dt="string">2015-02-12T16:01:28Z</DateUtc></StartTime><FrequencyChanges><FrequencyChange><Frequency dt:dt="r8">2327520000</Frequency><Timestamp dt:dt="r8">1635555120822</Timestamp><Current dt:dt="r8">0</Current><DateUtc dt:dt="string">2015-02-12T16:01:28Z</DateUtc></FrequencyChange></FrequencyChanges></Clock>\n,v4_BCL_f2_g-13-1,60.001,1.0.0.238,1,-359777857,2.0.10.242,2.0.10.242,02-12-2015,2/12/2015 4:01:28 PM,11:01:28,2.0.10.147,124,,,,,,70,1,70,,,,1,,,g,,0.253,,,9.65,,,31.18,,,,,,TrialProc1,,,,vowel 1,vowel 2,1,137,441953,Block2,g1_f0_9_65_f2_31_18_dur_0_253_num_274.wav,,,,
