ExperimentName,Subject,Session,Clock.Information,DataFile.Basename,Display.RefreshRate,ExperimentVersion,Group,RandomSeed,RuntimeVersion,RuntimeVersionExpected,SessionDate,SessionStartDateTimeUtc,SessionTime,StudioVersion,Block,A,B,Block1,Block1.Cycle,Block1.Sample,Block2,Block2.Cycle,Block2.Sample,Block3,Block3.Cycle,Block3.Sample,cat,catA,catB,cons,correct_resp,dur,durA,durB,f0,f0A,f0B,f2,f2A,f2B,PracticeList,PracticeList.Cycle,PracticeList.Sample,Procedure,resp.CRESP,resp.RESP,resp.RT,resp1,resp2,respond.RESP,respond.RT,respond.RTTime,Running,soundfile,testList,testList.Cycle,testList.Sample,X
v4_BCL_f2_d,7,1,<?xml version="1.0"?>\n<Clock xmlns:dt="urn:schemas-microsoft-com:datatypes"><Description dt:dt="string">E-Prime Primary Realtime Clock</Description><StartTime><Timestamp dt:dt="int">0</Timestamp><DateUtc dt:dt="string">2014-10-10T19:01:44Z</DateUtc></StartTime><FrequencyChanges><FrequencyChange><Frequency dt:dt="r8">2327520000</Frequency><Timestamp dt:dt="r8">869903446559</Timestamp><Current dt:dt="r8">0</Current><DateUtc dt:dt="string">2014-10-10T19:01:44Z</DateUtc></FrequencyChange></FrequencyChanges></Clock>\n,v4_BCL_f2_d-7-1,60.001,1.0.0.229,1,-1519872893,2.0.10.242,2.0.10.242,10-10-2014,10/10/2014 7:01:44 PM,15:01:44,2.0.10.147,1,,,,,,,,,,,,NA,,,NA,,NA,,,NA,,,NA,,,4,1,1,PracProc,,,,vowel 1,vowel 2,,0,0,PracticeList,tay.wav,,,,
v4_BCL_f2_d,7,1,<?xml version="1.0"?>\n<Clock xmlns:dt="urn:schemas-microsoft-com:datatypes"><Description dt:dt="string">E-Prime Primary Realtime Clock</Description><StartTime><Timestamp dt:dt="int">0</Timestamp><DateUtc dt:dt="string">2014-10-10T19:01:44Z</DateUtc></StartTime><FrequencyChanges><FrequencyChange><Frequency dt:dt="r8">2327520000</Frequency><Timestamp dt:dt="r8">869903446559</Timestamp><Current dt:dt="r8">0</Current><DateUtc dt:dt="string">2014-10-10T19:01:44Z</DateUtc></FrequencyChange></FrequencyChanges></Clock>\n,v4_BCL_f2_d-7-1,60.001,1.0.0.229,1,-1519872893,2.0.10.242,2.0.10.242,10-10-2014,10/10/2014 7:01:44 PM,15:01:44,2.0.10.147,2,,,,,,,,,,,,NA,,,NA,,NA,,,NA,,,NA,,,2,1,2,PracProc,,,,vowel 1,vowel 2,,0,0,PracticeList,kay.wav,,,,
v4_BCL_f2_d,7,1,<?xml version="1.0"?>\n<Clock xmlns:dt="urn:schemas-microsoft-com:datatypes"><Description dt:dt="string">E-Prime Primary Realtime Clock</Description><StartTime><Timestamp dt:dt="int">0</Timestamp><DateUtc dt:dt="string">2014-10-10T19:01:44Z</DateUtc></StartTime><FrequencyChanges><FrequencyChange><Frequency dt:dt="r8">2327520000</Frequency><Timestamp dt:dt="r8">869903446559</Timestamp><Current dt:dt="r8">0</Current><DateUtc dt:dt="string">2014-10-10T19:01:44Z</DateUtc></FrequencyChange></FrequencyChanges></Clock>\n,v4_BCL_f2_d-7-1,60.001,1.0.0.229,1,-1519872893,2.0.10.242,2.0.10.242,10-10-2014,10/10/2014 7:01:44 PM,15:01:44,2.0.10.147,3,,,,,,,,,,,,NA,,,NA,,NA,,,NA,,,NA,,,5,1,3,PracProc,,,,vowel 1,vowel 2,,0,0,PracticeList,see.wav,,,,
v4_BCL_f2_d,7,1,<?xml version="1.0"?>\n<Clock xmlns:dt="urn:schemas-microsoft-com:datatypes"><Description dt:dt="string">E-Prime Primary Realtime Clock</Description><StartTime><Timestamp dt:dt="int">0</Timestamp><DateUtc dt:dt="string">2014-10-10T19:01:44Z</DateUtc></StartTime><FrequencyChanges><FrequencyChange><Frequency dt:dt="r8">2327520000</Frequency><Timestamp dt:dt="r8">869903446559</Timestamp><Current dt:dt="r8">0</Current><DateUtc dt:dt="string">2014-10-10T19:01:44Z</DateUtc></FrequencyChange></FrequencyChanges></Clock>\n,v4_BCL_f2_d-7-1,60.001,1.0.0.229,1,-1519872893,2.0.10.242,2.0.10.242,10-10-2014,10/10/2014 7:01:44 PM,15:01:44,2.0.10.147,4,,,,,,,,,,,,NA,,,NA,,NA,,,NA,,,NA,,,6,1,4,PracProc,,,,vowel 1,vowel 2,,0,0,PracticeList,say.wav,,,,
v4_BCL_f2_d,7,1,<?xml version="1.0"?>\n<Clock xmlns:dt="urn:schemas-microsoft-com:datatypes"><Description dt:dt="string">E-Prime Primary Realtime Clock</Description><StartTime><Timestamp dt:dt="int">0</Timestamp><DateUtc dt:dt="string">2014-10-10T19:01:44Z</DateUtc></StartTime><FrequencyChanges><FrequencyChange><Frequency dt:dt="r8">2327520000</Frequency><Timestamp dt:dt="r8">869903446559</Timestamp><Current dt:dt="r8">0</Current><DateUtc dt:dt="string">2014-10-10T19:01:44Z</DateUtc></FrequencyChange></FrequencyChanges></Clock>\n,v4_BCL_f2_d-7-1,60.001,1.0.0.229,1,-1519872893,2.0.10.242,2.0.10.242,10-10-2014,10/10/2014 7:01:44 PM,15:01:44,2.0.10.147,5,,,,,,,,,,,,NA,,,NA,,NA,,,NA,,,NA,,,3,1,5,PracProc,,,,vowel 1,vowel 2,,0,0,PracticeList,tea.wav,,,,
v4_BCL_f2_d,7,1,<?xml version="1.0"?>\n<Clock xmlns:dt="urn:schemas-microsoft-com:datatypes"><Description dt:dt="string">E-Prime Primary Realtime Clock</Description><StartTime><Timestamp dt:dt="int">0</Timestamp><DateUtc dt:dt="string">2014-10-10T19:01:44Z</DateUtc></StartTime><FrequencyChanges><FrequencyChange><Frequency dt:dt="r8">2327520000</Frequency><Timestamp dt:dt="r8">869903446559</Timestamp><Current dt:dt="r8">0</Current><DateUtc dt:dt="string">2014-10-10T19:01:44Z</DateUtc></FrequencyChange></FrequencyChanges></Clock>\n,v4_BCL_f2_d-7-1,60.001,1.0.0.229,1,-1519872893,2.0.10.242,2.0.10.242,10-10-2014,10/10/2014 7:01:44 PM,15:01:44,2.0.10.147,6,,,,,,,,,,,,NA,,,NA,,NA,,,NA,,,NA,,,1,1,6,PracProc,,,,vowel 1,vowel 2,,0,0,PracticeList,key.wav,,,,
v4_BCL_f2_d,7,1,<?xml version="1.0"?>\n<Clock xmlns:dt="urn:schemas-microsoft-com:datatypes"><Description dt:dt="string">E-Prime Primary Realtime Clock</Description><StartTime><Timestamp dt:dt="int">0</Timestamp><DateUtc dt:dt="string">2014-10-10T19:01:44Z</DateUtc></StartTime><FrequencyChanges><FrequencyChange><Frequency dt:dt="r8">2327520000</Frequency><Timestamp dt:dt="r8">869903446559</Timestamp><Current dt:dt="r8">0</Current><DateUtc dt:dt="string">2014-10-10T19:01:44Z</DateUtc></FrequencyChange></FrequencyChanges></Clock>\n,v4_BCL_f2_d-7-1,60.001,1.0.0.229,1,-1519872893,2.0.10.242,2.0.10.242,10-10-2014,10/10/2014 7:01:44 PM,15:01:44,2.0.10.147,7,,,,,,,,,,,,NA,,,NA,,NA,,,NA,,,NA,,,6,2,7,PracProc,,,,vowel 1,vowel 2,,0,0,PracticeList,say.wav,,,,
v4_BCL_f2_d,7,1,<?xml version="1.0"?>\n<Clock xmlns:dt="urn:schemas-microsoft-com:datatypes"><Description dt:dt="string">E-Prime Primary Realtime Clock</Description><StartTime><Timestamp dt:dt="int">0</Timestamp><DateUtc dt:dt="string">2014-10-10T19:01:44Z</DateUtc></StartTime><FrequencyChanges><FrequencyChange><Frequency dt:dt="r8">2327520000</Frequency><Timestamp dt:dt="r8">869903446559</Timestamp><Current dt:dt="r8">0</Current><DateUtc dt:dt="string">2014-10-10T19:01:44Z</DateUtc></FrequencyChange></FrequencyChanges></Clock>\n,v4_BCL_f2_d-7-1,60.001,1.0.0.229,1,-1519872893,2.0.10.242,2.0.10.242,10-10-2014,10/10/2014 7:01:44 PM,15:01:44,2.0.10.147,8,,,,,,,,,,,,NA,,,NA,,NA,,,NA,,,NA,,,2,2,8,PracProc,,,,vowel 1,vowel 2,,0,0,PracticeList,kay.wav,,,,
v4_BCL_f2_d,7,1,<?xml version="1.0"?>\n<Clock xmlns:dt="urn:schemas-microsoft-com:datatypes"><Description dt:dt="string">E-Prime Primary Realtime Clock</Description><StartTime><Timestamp dt:dt="int">0</Timestamp><DateUtc dt:dt="string">2014-10-10T19:01:44Z</DateUtc></StartTime><FrequencyChanges><FrequencyChange><Frequency dt:dt="r8">2327520000</Frequency><Timestamp dt:dt="r8">869903446559</Timestamp><Current dt:dt="r8">0</Current><DateUtc dt:dt="string">2014-10-10T19:01:44Z</DateUtc></FrequencyChange></FrequencyChanges></Clock>\n,v4_BCL_f2_d-7-1,60.001,1.0.0.229,1,-1519872893,2.0.10.242,2.0.10.242,10-10-2014,10/10/2014 7:01:44 PM,15:01:44,2.0.10.147,9,,,,,,,,,,,,NA,,,NA,,NA,,,NA,,,NA,,,1,2,9,PracProc,,,,vowel 1,vowel 2,,0,0,PracticeList,key.wav,,,,
v4_BCL_f2_d,7,1,<?xml version="1.0"?>\n<Clock xmlns:dt="urn:schemas-microsoft-com:datatypes"><Description dt:dt="string">E-Prime Primary Realtime Clock</Description><StartTime><Timestamp dt:dt="int">0</Timestamp><DateUtc dt:dt="string">2014-10-10T19:01:44Z</DateUtc></StartTime><FrequencyChanges><FrequencyChange><Frequency dt:dt="r8">2327520000</Frequency><Timestamp dt:dt="r8">869903446559</Timestamp><Current dt:dt="r8">0</Current><DateUtc dt:dt="string">2014-10-10T19:01:44Z</DateUtc></FrequencyChange></FrequencyChanges></Clock>\n,v4_BCL_f2_d-7-1,60.001,1.0.0.229,1,-1519872893,2.0.10.242,2.0.10.242,10-10-2014,10/10/2014 7:01:44 PM,15:01:44,2.0.10.147,10,,,,,,,,,,,,NA,,,NA,,NA,,,NA,,,NA,,,4,2,10,PracProc,,,,vowel 1,vowel 2,,0,0,PracticeList,tay.wav,,,,
v4_BCL_f2_d,7,1,<?xml version="1.0"?>\n<Clock xmlns:dt="urn:schemas-microsoft-com:datatypes"><Description dt:dt="string">E-Prime Primary Realtime Clock</Description><StartTime><Timestamp dt:dt="int">0</Timestamp><DateUtc dt:dt="string">2014-10-10T19:01:44Z</DateUtc></StartTime><FrequencyChanges><FrequencyChange><Frequency dt:dt="r8">2327520000</Frequency><Timestamp dt:dt="r8">869903446559</Timestamp><Current dt:dt="r8">0</Current><DateUtc dt:dt="string">2014-10-10T19:01:44Z</DateUtc></FrequencyChange></FrequencyChanges></Clock>\n,v4_BCL_f2_d-7-1,60.001,1.0.0.229,1,-1519872893,2.0.10.242,2.0.10.242,10-10-2014,10/10/2014 7:01:44 PM,15:01:44,2.0.10.147,11,,,,,,,,,,,,NA,,,NA,,NA,,,NA,,,NA,,,5,2,11,PracProc,,,,vowel 1,vowel 2,,0,0,PracticeList,see.wav,,,,
v4_BCL_f2_d,7,1,<?xml version="1.0"?>\n<Clock xmlns:dt="urn:schemas-microsoft-com:datatypes"><Description dt:dt="string">E-Prime Primary Realtime Clock</Description><StartTime><Timestamp dt:dt="int">0</Timestamp><DateUtc dt:dt="string">2014-10-10T19:01:44Z</DateUtc></StartTime><FrequencyChanges><FrequencyChange><Frequency dt:dt="r8">2327520000</Frequency><Timestamp dt:dt="r8">869903446559</Timestamp><Current dt:dt="r8">0</Current><DateUtc dt:dt="string">2014-10-10T19:01:44Z</DateUtc></FrequencyChange></FrequencyChanges></Clock>\n,v4_BCL_f2_d-7-1,60.001,1.0.0.229,1,-1519872893,2.0.10.242,2.0.10.242,10-10-2014,10/10/2014 7:01:44 PM,15:01:44,2.0.10.147,12,,,,,,,,,,,,NA,,,NA,,NA,,,NA,,,NA,,,3,2,12,PracProc,,,,vowel 1,vowel 2,,0,0,PracticeList,tea.wav,,,,
v4_BCL_f2_d,7,1,<?xml version="1.0"?>\n<Clock xmlns:dt="urn:schemas-microsoft-com:datatypes"><Description dt:dt="string">E-Prime Primary Realtime Clock</Description><StartTime><Timestamp dt:dt="int">0</Timestamp><DateUtc dt:dt="string">2014-10-10T19:01:44Z</DateUtc></StartTime><FrequencyChanges><FrequencyChange><Frequency dt:dt="r8">2327520000</Frequency><Timestamp dt:dt="r8">869903446559</Timestamp><Current dt:dt="r8">0</Current><DateUtc dt:dt="string">2014-10-10T19:01:44Z</DateUtc></FrequencyChange></FrequencyChanges></Clock>\n,v4_BCL_f2_d-7-1,60.001,1.0.0.229,1,-1519872893,2.0.10.242,2.0.10.242,10-10-2014,10/10/2014 7:01:44 PM,15:01:44,2.0.10.147,13,,,,,,,,,,,,NA,,,NA,,NA,,,NA,,,NA,,,5,3,13,PracProc,,,,vowel 1,vowel 2,,0,0,PracticeList,see.wav,,,,
v4_BCL_f2_d,7,1,<?xml version="1.0"?>\n<Clock xmlns:dt="urn:schemas-microsoft-com:datatypes"><Description dt:dt="string">E-Prime Primary Realtime Clock</Description><StartTime><Timestamp dt:dt="int">0</Timestamp><DateUtc dt:dt="string">2014-10-10T19:01:44Z</DateUtc></StartTime><FrequencyChanges><FrequencyChange><Frequency dt:dt="r8">2327520000</Frequency><Timestamp dt:dt="r8">869903446559</Timestamp><Current dt:dt="r8">0</Current><DateUtc dt:dt="string">2014-10-10T19:01:44Z</DateUtc></FrequencyChange></FrequencyChanges></Clock>\n,v4_BCL_f2_d-7-1,60.001,1.0.0.229,1,-1519872893,2.0.10.242,2.0.10.242,10-10-2014,10/10/2014 7:01:44 PM,15:01:44,2.0.10.147,14,,,,,,,,,,,,NA,,,NA,,NA,,,NA,,,NA,,,1,3,14,PracProc,,,,vowel 1,vowel 2,,0,0,PracticeList,key.wav,,,,
v4_BCL_f2_d,7,1,<?xml version="1.0"?>\n<Clock xmlns:dt="urn:schemas-microsoft-com:datatypes"><Description dt:dt="string">E-Prime Primary Realtime Clock</Description><StartTime><Timestamp dt:dt="int">0</Timestamp><DateUtc dt:dt="string">2014-10-10T19:01:44Z</DateUtc></StartTime><FrequencyChanges><FrequencyChange><Frequency dt:dt="r8">2327520000</Frequency><Timestamp dt:dt="r8">869903446559</Timestamp><Current dt:dt="r8">0</Current><DateUtc dt:dt="string">2014-10-10T19:01:44Z</DateUtc></FrequencyChange></FrequencyChanges></Clock>\n,v4_BCL_f2_d-7-1,60.001,1.0.0.229,1,-1519872893,2.0.10.242,2.0.10.242,10-10-2014,10/10/2014 7:01:44 PM,15:01:44,2.0.10.147,15,,,,,,,,,,,,NA,,,NA,,NA,,,NA,,,NA,,,4,3,15,PracProc,,,,vowel 1,vowel 2,,0,0,PracticeList,tay.wav,,,,
v4_BCL_f2_d,7,1,<?xml version="1.0"?>\n<Clock xmlns:dt="urn:schemas-microsoft-com:datatypes"><Description dt:dt="string">E-Prime Primary Realtime Clock</Description><StartTime><Timestamp dt:dt="int">0</Timestamp><DateUtc dt:dt="string">2014-10-10T19:01:44Z</DateUtc></StartTime><FrequencyChanges><FrequencyChange><Frequency dt:dt="r8">2327520000</Frequency><Timestamp dt:dt="r8">869903446559</Timestamp><Current dt:dt="r8">0</Current><DateUtc dt:dt="string">2014-10-10T19:01:44Z</DateUtc></FrequencyChange></FrequencyChanges></Clock>\n,v4_BCL_f2_d-7-1,60.001,1.0.0.229,1,-1519872893,2.0.10.242,2.0.10.242,10-10-2014,10/10/2014 7:01:44 PM,15:01:44,2.0.10.147,16,,,,,,,,,,,,NA,,,NA,,NA,,,NA,,,NA,,,3,3,16,PracProc,,,,vowel 1,vowel 2,,0,0,PracticeList,tea.wav,,,,
v4_BCL_f2_d,7,1,<?xml version="1.0"?>\n<Clock xmlns:dt="urn:schemas-microsoft-com:datatypes"><Description dt:dt="string">E-Prime Primary Realtime Clock</Description><StartTime><Timestamp dt:dt="int">0</Timestamp><DateUtc dt:dt="string">2014-10-10T19:01:44Z</DateUtc></StartTime><FrequencyChanges><FrequencyChange><Frequency dt:dt="r8">2327520000</Frequency><Timestamp dt:dt="r8">869903446559</Timestamp><Current dt:dt="r8">0</Current><DateUtc dt:dt="string">2014-10-10T19:01:44Z</DateUtc></FrequencyChange></FrequencyChanges></Clock>\n,v4_BCL_f2_d-7-1,60.001,1.0.0.229,1,-1519872893,2.0.10.242,2.0.10.242,10-10-2014,10/10/2014 7:01:44 PM,15:01:44,2.0.10.147,17,,,,,,,,,,,,NA,,,NA,,NA,,,NA,,,NA,,,2,3,17,PracProc,,,,vowel 1,vowel 2,,0,0,PracticeList,kay.wav,,,,
v4_BCL_f2_d,7,1,<?xml version="1.0"?>\n<Clock xmlns:dt="urn:schemas-microsoft-com:datatypes"><Description dt:dt="string">E-Prime Primary Realtime Clock</Description><StartTime><Timestamp dt:dt="int">0</Timestamp><DateUtc dt:dt="string">2014-10-10T19:01:44Z</DateUtc></StartTime><FrequencyChanges><FrequencyChange><Frequency dt:dt="r8">2327520000</Frequency><Timestamp dt:dt="r8">869903446559</Timestamp><Current dt:dt="r8">0</Current><DateUtc dt:dt="string">2014-10-10T19:01:44Z</DateUtc></FrequencyChange></FrequencyChanges></Clock>\n,v4_BCL_f2_d-7-1,60.001,1.0.0.229,1,-1519872893,2.0.10.242,2.0.10.242,10-10-2014,10/10/2014 7:01:44 PM,15:01:44,2.0.10.147,18,,,,,,,,,,,,NA,,,NA,,NA,,,NA,,,NA,,,6,3,18,PracProc,,,,vowel 1,vowel 2,,0,0,PracticeList,say.wav,,,,
v4_BCL_f2_d,7,1,<?xml version="1.0"?>\n<Clock xmlns:dt="urn:schemas-microsoft-com:datatypes"><Description dt:dt="string">E-Prime Primary Realtime Clock</Description><StartTime><Timestamp dt:dt="int">0</Timestamp><DateUtc dt:dt="string">2014-10-10T19:01:44Z</DateUtc></StartTime><FrequencyChanges><FrequencyChange><Frequency dt:dt="r8">2327520000</Frequency><Timestamp dt:dt="r8">869903446559</Timestamp><Current dt:dt="r8">0</Current><DateUtc dt:dt="string">2014-10-10T19:01:44Z</DateUtc></FrequencyChange></FrequencyChanges></Clock>\n,v4_BCL_f2_d-7-1,60.001,1.0.0.229,1,-1519872893,2.0.10.242,2.0.10.242,10-10-2014,10/10/2014 7:01:44 PM,15:01:44,2.0.10.147,19,,,2,1,1,,,,,,,2,,,b,,0.254,,,9.81,,,28.59,,,,,,ExposureProc,,,,vowel 1,vowel 2,,,,Block1,b2_f0_9_81_f2_28_59_dur_0_254_num_375.wav,,,,
v4_BCL_f2_d,7,1,<?xml version="1.0"?>\n<Clock xmlns:dt="urn:schemas-microsoft-com:datatypes"><Description dt:dt="string">E-Prime Primary Realtime Clock</Description><StartTime><Timestamp dt:dt="int">0</Timestamp><DateUtc dt:dt="string">2014-10-10T19:01:44Z</DateUtc></StartTime><FrequencyChanges><FrequencyChange><Frequency dt:dt="r8">2327520000</Frequency><Timestamp dt:dt="r8">869903446559</Timestamp><Current dt:dt="r8">0</Current><DateUtc dt:dt="string">2014-10-10T19:01:44Z</DateUtc></FrequencyChange></FrequencyChanges></Clock>\n,v4_BCL_f2_d-7-1,60.001,1.0.0.229,1,-1519872893,2.0.10.242,2.0.10.242,10-10-2014,10/10/2014 7:01:44 PM,15:01:44,2.0.10.147,20,,,13,1,2,,,,,,,1,,,d,,0.253,,,9.15,,,31.39,,,,,,ExposureProc,,,,vowel 1,vowel 2,,,,Block1,d1_f0_9_15_f2_31_39_dur_0_253_num_105.wav,,,,
v4_BCL_f2_d,7,1,<?xml version="1.0"?>\n<Clock xmlns:dt="urn:schemas-microsoft-com:datatypes"><Description dt:dt="string">E-Prime Primary Realtime Clock</Description><StartTime><Timestamp dt:dt="int">0</Timestamp><DateUtc dt:dt="string">2014-10-10T19:01:44Z</DateUtc></StartTime><FrequencyChanges><FrequencyChange><Frequency dt:dt="r8">2327520000</Frequency><Timestamp dt:dt="r8">869903446559</Timestamp><Current dt:dt="r8">0</Current><DateUtc dt:dt="string">2014-10-10T19:01:44Z</DateUtc></FrequencyChange></FrequencyChanges></Clock>\n,v4_BCL_f2_d-7-1,60.001,1.0.0.229,1,-1519872893,2.0.10.242,2.0.10.242,10-10-2014,10/10/2014 7:01:44 PM,15:01:44,2.0.10.147,21,,,24,1,3,,,,,,,2,,,d,,0.245,,,9.19,,,29.19,,,,,,ExposureProc,,,,vowel 1,vowel 2,,,,Block1,d2_f0_9_19_f2_29_19_dur_0_245_num_478.wav,,,,
v4_BCL_f2_d,7,1,<?xml version="1.0"?>\n<Clock xmlns:dt="urn:schemas-microsoft-com:datatypes"><Description dt:dt="string">E-Prime Primary Realtime Clock</Description><StartTime><Timestamp dt:dt="int">0</Timestamp><DateUtc dt:dt="string">2014-10-10T19:01:44Z</DateUtc></StartTime><FrequencyChanges><FrequencyChange><Frequency dt:dt="r8">2327520000</Frequency><Timestamp dt:dt="r8">869903446559</Timestamp><Current dt:dt="r8">0</Current><DateUtc dt:dt="string">2014-10-10T19:01:44Z</DateUtc></FrequencyChange></FrequencyChanges></Clock>\n,v4_BCL_f2_d-7-1,60.001,1.0.0.229,1,-1519872893,2.0.10.242,2.0.10.242,10-10-2014,10/10/2014 7:01:44 PM,15:01:44,2.0.10.147,22,,,9,1,4,,,,,,,1,,,b,,0.252,,,8.3,,,32.46,,,,,,ExposureProc,,,,vowel 1,vowel 2,,,,Block1,b1_f0_8_30_f2_32_46_dur_0_252_num_50.wav,,,,
v4_BCL_f2_d,7,1,<?xml version="1.0"?>\n<Clock xmlns:dt="urn:schemas-microsoft-com:datatypes"><Description dt:dt="string">E-Prime Primary Realtime Clock</Description><StartTime><Timestamp dt:dt="int">0</Timestamp><DateUtc dt:dt="string">2014-10-10T19:01:44Z</DateUtc></StartTime><FrequencyChanges><FrequencyChange><Frequency dt:dt="r8">2327520000</Frequency><Timestamp dt:dt="r8">869903446559</Timestamp><Current dt:dt="r8">0</Current><DateUtc dt:dt="string">2014-10-10T19:01:44Z</DateUtc></FrequencyChange></FrequencyChanges></Clock>\n,v4_BCL_f2_d-7-1,60.001,1.0.0.229,1,-1519872893,2.0.10.242,2.0.10.242,10-10-2014,10/10/2014 7:01:44 PM,15:01:44,2.0.10.147,23,,,5,1,5,,,,,,,1,,,b,,0.252,,,11.03,,,30.44,,,,,,ExposureProc,,,,vowel 1,vowel 2,,,,Block1,b1_f0_11_03_f2_30_44_dur_0_252_num_85.wav,,,,
v4_BCL_f2_d,7,1,<?xml version="1.0"?>\n<Clock xmlns:dt="urn:schemas-microsoft-com:datatypes"><Description dt:dt="string">E-Prime Primary Realtime Clock</Description><StartTime><Timestamp dt:dt="int">0</Timestamp><DateUtc dt:dt="string">2014-10-10T19:01:44Z</DateUtc></StartTime><FrequencyChanges><FrequencyChange><Frequency dt:dt="r8">2327520000</Frequency><Timestamp dt:dt="r8">869903446559</Timestamp><Current dt:dt="r8">0</Current><DateUtc dt:dt="string">2014-10-10T19:01:44Z</DateUtc></FrequencyChange></FrequencyChanges></Clock>\n,v4_BCL_f2_d-7-1,60.001,1.0.0.229,1,-1519872893,2.0.10.242,2.0.10.242,10-10-2014,10/10/2014 7:01:44 PM,15:01:44,2.0.10.147,24,,,30,1,6,,,,,,,1,,,g,,0.255,,,9.68,,,29.92,,,,,,ExposureProc,,,,vowel 1,vowel 2,,,,Block1,g1_f0_9_68_f2_29_92_dur_0_255_num_216.wav,,,,
v4_BCL_f2_d,7,1,<?xml version="1.0"?>\n<Clock xmlns:dt="urn:schemas-microsoft-com:datatypes"><Description dt:dt="string">E-Prime Primary Realtime Clock</Description><StartTime><Timestamp dt:dt="int">0</Timestamp><DateUtc dt:dt="string">2014-10-10T19:01:44Z</DateUtc></StartTime><FrequencyChanges><FrequencyChange><Frequency dt:dt="r8">2327520000</Frequency><Timestamp dt:dt="r8">869903446559</Timestamp><Current dt:dt="r8">0</Current><DateUtc dt:dt="string">2014-10-10T19:01:44Z</DateUtc></FrequencyChange></FrequencyChanges></Clock>\n,v4_BCL_f2_d-7-1,60.001,1.0.0.229,1,-1519872893,2.0.10.242,2.0.10.242,10-10-2014,10/10/2014 7:01:44 PM,15:01:44,2.0.10.147,25,,,19,1,7,,,,,,,1,,,d,,0.254,,,9.75,,,30.01,,,,,,ExposureProc,,,,vowel 1,vowel 2,,,,Block1,d1_f0_9_75_f2_30_01_dur_0_254_num_158.wav,,,,
v4_BCL_f2_d,7,1,<?xml version="1.0"?>\n<Clock xmlns:dt="urn:schemas-microsoft-com:datatypes"><Description dt:dt="string">E-Prime Primary Realtime Clock</Description><StartTime><Timestamp dt:dt="int">0</Timestamp><DateUtc dt:dt="string">2014-10-10T19:01:44Z</DateUtc></StartTime><FrequencyChanges><FrequencyChange><Frequency dt:dt="r8">2327520000</Frequency><Timestamp dt:dt="r8">869903446559</Timestamp><Current dt:dt="r8">0</Current><DateUtc dt:dt="string">2014-10-10T19:01:44Z</DateUtc></FrequencyChange></FrequencyChanges></Clock>\n,v4_BCL_f2_d-7-1,60.001,1.0.0.229,1,-1519872893,2.0.10.242,2.0.10.242,10-10-2014,10/10/2014 7:01:44 PM,15:01:44,2.0.10.147,26,,,20,1,8,,,,,,,2,,,d,,0.258,,,9.63,,,29.99,,,,,,ExposureProc,,,,vowel 1,vowel 2,,,,Block1,d2_f0_9_63_f2_29_99_dur_0_258_num_488.wav,,,,
v4_BCL_f2_d,7,1,<?xml version="1.0"?>\n<Clock xmlns:dt="urn:schemas-microsoft-com:datatypes"><Description dt:dt="string">E-Prime Primary Realtime Clock</Description><StartTime><Timestamp dt:dt="int">0</Timestamp><DateUtc dt:dt="string">2014-10-10T19:01:44Z</DateUtc></StartTime><FrequencyChanges><FrequencyChange><Frequency dt:dt="r8">2327520000</Frequency><Timestamp dt:dt="r8">869903446559</Timestamp><Current dt:dt="r8">0</Current><DateUtc dt:dt="string">2014-10-10T19:01:44Z</DateUtc></FrequencyChange></FrequencyChanges></Clock>\n,v4_BCL_f2_d-7-1,60.001,1.0.0.229,1,-1519872893,2.0.10.242,2.0.10.242,10-10-2014,10/10/2014 7:01:44 PM,15:01:44,2.0.10.147,27,,,10,1,9,,,,,,,1,,,b,,0.245,,,8.08,,,31.67,,,,,,ExposureProc,,,,vowel 1,vowel 2,,,,Block1,b1_f0_8_08_f2_31_67_dur_0_245_num_64.wav,,,,
v4_BCL_f2_d,7,1,<?xml version="1.0"?>\n<Clock xmlns:dt="urn:schemas-microsoft-com:datatypes"><Description dt:dt="string">E-Prime Primary Realtime Clock</Description><StartTime><Timestamp dt:dt="int">0</Timestamp><DateUtc dt:dt="string">2014-10-10T19:01:44Z</DateUtc></StartTime><FrequencyChanges><FrequencyChange><Frequency dt:dt="r8">2327520000</Frequency><Timestamp dt:dt="r8">869903446559</Timestamp><Current dt:dt="r8">0</Current><DateUtc dt:dt="string">2014-10-10T19:01:44Z</DateUtc></FrequencyChange></FrequencyChanges></Clock>\n,v4_BCL_f2_d-7-1,60.001,1.0.0.229,1,-1519872893,2.0.10.242,2.0.10.242,10-10-2014,10/10/2014 7:01:44 PM,15:01:44,2.0.10.147,28,,,36,1,10,,,,,,,2,,,g,,0.251,,,9.59,,,28.52,,,,,,ExposureProc,,,,vowel 1,vowel 2,,,,Block1,g2_f0_9_59_f2_28_52_dur_0_251_num_515.wav,,,,
v4_BCL_f2_d,7,1,<?xml version="1.0"?>\n<Clock xmlns:dt="urn:schemas-microsoft-com:datatypes"><Description dt:dt="string">E-Prime Primary Realtime Clock</Description><StartTime><Timestamp dt:dt="int">0</Timestamp><DateUtc dt:dt="string">2014-10-10T19:01:44Z</DateUtc></StartTime><FrequencyChanges><FrequencyChange><Frequency dt:dt="r8">2327520000</Frequency><Timestamp dt:dt="r8">869903446559</Timestamp><Current dt:dt="r8">0</Current><DateUtc dt:dt="string">2014-10-10T19:01:44Z</DateUtc></FrequencyChange></FrequencyChanges></Clock>\n,v4_BCL_f2_d-7-1,60.001,1.0.0.229,1,-1519872893,2.0.10.242,2.0.10.242,10-10-2014,10/10/2014 7:01:44 PM,15:01:44,2.0.10.147,29,,,31,1,11,,,,,,,2,,,g,,0.249,,,9.12,,,29.12,,,,,,ExposureProc,,,,vowel 1,vowel 2,,,,Block1,g2_f0_9_12_f2_29_12_dur_0_249_num_586.wav,,,,
v4_BCL_f2_d,7,1,<?xml version="1.0"?>\n<Clock xmlns:dt="urn:schemas-microsoft-com:datatypes"><Description dt:dt="string">E-Prime Primary Realtime Clock</Description><StartTime><Timestamp dt:dt="int">0</Timestamp><DateUtc dt:dt="string">2014-10-10T19:01:44Z</DateUtc></StartTime><FrequencyChanges><FrequencyChange><Frequency dt:dt="r8">2327520000</Frequency><Timestamp dt:dt="r8">869903446559</Timestamp><Current dt:dt="r8">0</Current><DateUtc dt:dt="string">2014-10-10T19:01:44Z</DateUtc></FrequencyChange></FrequencyChanges></Clock>\n,v4_BCL_f2_d-7-1,60.001,1.0.0.229,1,-1519872893,2.0.10.242,2.0.10.242,10-10-2014,10/10/2014 7:01:44 PM,15:01:44,2.0.10.147,30,,,32,1,12,,,,,,,2,,,g,,0.249,,,7.72,,,30.14,,,,,,ExposureProc,,,,vowel 1,vowel 2,,,,Block1,g2_f0_7_72_f2_30_14_dur_0_249_num_558.wav,,,,
v4_BCL_f2_d,7,1,<?xml version="1.0"?>\n<Clock xmlns:dt="urn:schemas-microsoft-com:datatypes"><Description dt:dt="string">E-Prime Primary Realtime Clock</Description><StartTime><Timestamp dt:dt="int">0</Timestamp><DateUtc dt:dt="string">2014-10-10T19:01:44Z</DateUtc></StartTime><FrequencyChanges><FrequencyChange><Frequency dt:dt="r8">2327520000</Frequency><Timestamp dt:dt="r8">869903446559</Timestamp><Current dt:dt="r8">0</Current><DateUtc dt:dt="string">2014-10-10T19:01:44Z</DateUtc></FrequencyChange></FrequencyChanges></Clock>\n,v4_BCL_f2_d-7-1,60.001,1.0.0.229,1,-1519872893,2.0.10.242,2.0.10.242,10-10-2014,10/10/2014 7:01:44 PM,15:01:44,2.0.10.147,31,,,29,1,13,,,,,,,1,,,g,,0.256,,,8.26,,,30.96,,,,,,ExposureProc,,,,vowel 1,vowel 2,,,,Block1,g1_f0_8_26_f2_30_96_dur_0_256_num_296.wav,,,,
v4_BCL_f2_d,7,1,<?xml version="1.0"?>\n<Clock xmlns:dt="urn:schemas-microsoft-com:datatypes"><Description dt:dt="string">E-Prime Primary Realtime Clock</Description><StartTime><Timestamp dt:dt="int">0</Timestamp><DateUtc dt:dt="string">2014-10-10T19:01:44Z</DateUtc></StartTime><FrequencyChanges><FrequencyChange><Frequency dt:dt="r8">2327520000</Frequency><Timestamp dt:dt="r8">869903446559</Timestamp><Current dt:dt="r8">0</Current><DateUtc dt:dt="string">2014-10-10T19:01:44Z</DateUtc></FrequencyChange></FrequencyChanges></Clock>\n,v4_BCL_f2_d-7-1,60.001,1.0.0.229,1,-1519872893,2.0.10.242,2.0.10.242,10-10-2014,10/10/2014 7:01:44 PM,15:01:44,2.0.10.147,32,,,34,1,14,,,,,,,2,,,g,,0.254,,,9.48,,,29.3,,,,,,ExposureProc,,,,vowel 1,vowel 2,,,,Block1,g2_f0_9_48_f2_29_30_dur_0_254_num_530.wav,,,,
v4_BCL_f2_d,7,1,<?xml version="1.0"?>\n<Clock xmlns:dt="urn:schemas-microsoft-com:datatypes"><Description dt:dt="string">E-Prime Primary Realtime Clock</Description><StartTime><Timestamp dt:dt="int">0</Timestamp><DateUtc dt:dt="string">2014-10-10T19:01:44Z</DateUtc></StartTime><FrequencyChanges><FrequencyChange><Frequency dt:dt="r8">2327520000</Frequency><Timestamp dt:dt="r8">869903446559</Timestamp><Current dt:dt="r8">0</Current><DateUtc dt:dt="string">2014-10-10T19:01:44Z</DateUtc></FrequencyChange></FrequencyChanges></Clock>\n,v4_BCL_f2_d-7-1,60.001,1.0.0.229,1,-1519872893,2.0.10.242,2.0.10.242,10-10-2014,10/10/2014 7:01:44 PM,15:01:44,2.0.10.147,33,,,4,1,15,,,,,,,1,,,b,,0.25,,,9.84,,,30.38,,,,,,ExposureProc,,,,vowel 1,vowel 2,,,,Block1,b1_f0_9_84_f2_30_38_dur_0_250_num_73.wav,,,,
v4_BCL_f2_d,7,1,<?xml version="1.0"?>\n<Clock xmlns:dt="urn:schemas-microsoft-com:datatypes"><Description dt:dt="string">E-Prime Primary Realtime Clock</Description><StartTime><Timestamp dt:dt="int">0</Timestamp><DateUtc dt:dt="string">2014-10-10T19:01:44Z</DateUtc></StartTime><FrequencyChanges><FrequencyChange><Frequency dt:dt="r8">2327520000</Frequency><Timestamp dt:dt="r8">869903446559</Timestamp><Current dt:dt="r8">0</Current><DateUtc dt:dt="string">2014-10-10T19:01:44Z</DateUtc></FrequencyChange></FrequencyChanges></Clock>\n,v4_BCL_f2_d-7-1,60.001,1.0.0.229,1,-1519872893,2.0.10.242,2.0.10.242,10-10-2014,10/10/2014 7:01:44 PM,15:01:44,2.0.10.147,34,,,33,1,16,,,,,,,1,,,g,,0.251,,,8.49,,,31.49,,,,,,ExposureProc,,,,vowel 1,vowel 2,,,,Block1,g1_f0_8_49_f2_31_49_dur_0_251_num_276.wav,,,,
v4_BCL_f2_d,7,1,<?xml version="1.0"?>\n<Clock xmlns:dt="urn:schemas-microsoft-com:datatypes"><Description dt:dt="string">E-Prime Primary Realtime Clock</Description><StartTime><Timestamp dt:dt="int">0</Timestamp><DateUtc dt:dt="string">2014-10-10T19:01:44Z</DateUtc></StartTime><FrequencyChanges><FrequencyChange><Frequency dt:dt="r8">2327520000</Frequency><Timestamp dt:dt="r8">869903446559</Timestamp><Current dt:dt="r8">0</Current><DateUtc dt:dt="string">2014-10-10T19:01:44Z</DateUtc></FrequencyChange></FrequencyChanges></Clock>\n,v4_BCL_f2_d-7-1,60.001,1.0.0.229,1,-1519872893,2.0.10.242,2.0.10.242,10-10-2014,10/10/2014 7:01:44 PM,15:01:44,2.0.10.147,35,,,14,1,17,,,,,,,1,,,d,,0.248,,,10.86,,,29.98,,,,,,ExposureProc,,,,vowel 1,vowel 2,,,,Block1,d1_f0_10_86_f2_29_98_dur_0_248_num_129.wav,,,,
v4_BCL_f2_d,7,1,<?xml version="1.0"?>\n<Clock xmlns:dt="urn:schemas-microsoft-com:datatypes"><Description dt:dt="string">E-Prime Primary Realtime Clock</Description><StartTime><Timestamp dt:dt="int">0</Timestamp><DateUtc dt:dt="string">2014-10-10T19:01:44Z</DateUtc></StartTime><FrequencyChanges><FrequencyChange><Frequency dt:dt="r8">2327520000</Frequency><Timestamp dt:dt="r8">869903446559</Timestamp><Current dt:dt="r8">0</Current><DateUtc dt:dt="string">2014-10-10T19:01:44Z</DateUtc></FrequencyChange></FrequencyChanges></Clock>\n,v4_BCL_f2_d-7-1,60.001,1.0.0.229,1,-1519872893,2.0.10.242,2.0.10.242,10-10-2014,10/10/2014 7:01:44 PM,15:01:44,2.0.10.147,36,,,3,1,18,,,,,,,2,,,b,,0.257,,,9.15,,,29.11,,,,,,ExposureProc,,,,vowel 1,vowel 2,,,,Block1,b2_f0_9_15_f2_29_11_dur_0_257_num_348.wav,,,,
v4_BCL_f2_d,7,1,<?xml version="1.0"?>\n<Clock xmlns:dt="urn:schemas-microsoft-com:datatypes"><Description dt:dt="string">E-Prime Primary Realtime Clock</Description><StartTime><Timestamp dt:dt="int">0</Timestamp><DateUtc dt:dt="string">2014-10-10T19:01:44Z</DateUtc></StartTime><FrequencyChanges><FrequencyChange><Frequency dt:dt="r8">2327520000</Frequency><Timestamp dt:dt="r8">869903446559</Timestamp><Current dt:dt="r8">0</Current><DateUtc dt:dt="string">2014-10-10T19:01:44Z</DateUtc></FrequencyChange></FrequencyChanges></Clock>\n,v4_BCL_f2_d-7-1,60.001,1.0.0.229,1,-1519872893,2.0.10.242,2.0.10.242,10-10-2014,10/10/2014 7:01:44 PM,15:01:44,2.0.10.147,37,,,22,1,19,,,,,,,2,,,d,,0.246,,,8.84,,,28.92,,,,,,ExposureProc,,,,vowel 1,vowel 2,,,,Block1,d2_f0_8_84_f2_28_92_dur_0_246_num_438.wav,,,,
v4_BCL_f2_d,7,1,<?xml version="1.0"?>\n<Clock xmlns:dt="urn:schemas-microsoft-com:datatypes"><Description dt:dt="string">E-Prime Primary Realtime Clock</Description><StartTime><Timestamp dt:dt="int">0</Timestamp><DateUtc dt:dt="string">2014-10-10T19:01:44Z</DateUtc></StartTime><FrequencyChanges><FrequencyChange><Frequency dt:dt="r8">2327520000</Frequency><Timestamp dt:dt="r8">869903446559</Timestamp><Current dt:dt="r8">0</Current><DateUtc dt:dt="string">2014-10-10T19:01:44Z</DateUtc></FrequencyChange></FrequencyChanges></Clock>\n,v4_BCL_f2_d-7-1,60.001,1.0.0.229,1,-1519872893,2.0.10.242,2.0.10.242,10-10-2014,10/10/2014 7:01:44 PM,15:01:44,2.0.10.147,38,,,7,1,20,,,,,,,2,,,b,,0.246,,,8.39,,,29.83,,,,,,ExposureProc,,,,vowel 1,vowel 2,,,,Block1,b2_f0_8_39_f2_29_83_dur_0_246_num_353.wav,,,,
v4_BCL_f2_d,7,1,<?xml version="1.0"?>\n<Clock xmlns:dt="urn:schemas-microsoft-com:datatypes"><Description dt:dt="string">E-Prime Primary Realtime Clock</Description><StartTime><Timestamp dt:dt="int">0</Timestamp><DateUtc dt:dt="string">2014-10-10T19:01:44Z</DateUtc></StartTime><FrequencyChanges><FrequencyChange><Frequency dt:dt="r8">2327520000</Frequency><Timestamp dt:dt="r8">869903446559</Timestamp><Current dt:dt="r8">0</Current><DateUtc dt:dt="string">2014-10-10T19:01:44Z</DateUtc></FrequencyChange></FrequencyChanges></Clock>\n,v4_BCL_f2_d-7-1,60.001,1.0.0.229,1,-1519872893,2.0.10.242,2.0.10.242,10-10-2014,10/10/2014 7:01:44 PM,15:01:44,2.0.10.147,39,,,25,1,21,,,,,,,1,,,g,,0.248,,,10.93,,,29.74,,,,,,ExposureProc,,,,vowel 1,vowel 2,,,,Block1,g1_f0_10_93_f2_29_74_dur_0_248_num_251.wav,,,,
v4_BCL_f2_d,7,1,<?xml version="1.0"?>\n<Clock xmlns:dt="urn:schemas-microsoft-com:datatypes"><Description dt:dt="string">E-Prime Primary Realtime Clock</Description><StartTime><Timestamp dt:dt="int">0</Timestamp><DateUtc dt:dt="string">2014-10-10T19:01:44Z</DateUtc></StartTime><FrequencyChanges><FrequencyChange><Frequency dt:dt="r8">2327520000</Frequency><Timestamp dt:dt="r8">869903446559</Timestamp><Current dt:dt="r8">0</Current><DateUtc dt:dt="string">2014-10-10T19:01:44Z</DateUtc></FrequencyChange></FrequencyChanges></Clock>\n,v4_BCL_f2_d-7-1,60.001,1.0.0.229,1,-1519872893,2.0.10.242,2.0.10.242,10-10-2014,10/10/2014 7:01:44 PM,15:01:44,2.0.10.147,40,,,35,1,22,,,,,,,2,,,g,,0.247,,,9.27,,,29.4,,,,,,ExposureProc,,,,vowel 1,vowel 2,,,,Block1,g2_f0_9_27_f2_29_40_dur_0_247_num_583.wav,,,,
v4_BCL_f2_d,7,1,<?xml version="1.0"?>\n<Clock xmlns:dt="urn:schemas-microsoft-com:datatypes"><Description dt:dt="string">E-Prime Primary Realtime Clock</Description><StartTime><Timestamp dt:dt="int">0</Timestamp><DateUtc dt:dt="string">2014-10-10T19:01:44Z</DateUtc></StartTime><FrequencyChanges><FrequencyChange><Frequency dt:dt="r8">2327520000</Frequency><Timestamp dt:dt="r8">869903446559</Timestamp><Current dt:dt="r8">0</Current><DateUtc dt:dt="string">2014-10-10T19:01:44Z</DateUtc></FrequencyChange></FrequencyChanges></Clock>\n,v4_BCL_f2_d-7-1,60.001,1.0.0.229,1,-1519872893,2.0.10.242,2.0.10.242,10-10-2014,10/10/2014 7:01:44 PM,15:01:44,2.0.10.147,41,,,15,1,23,,,,,,,1,,,d,,0.25,,,9.42,,,30.45,,,,,,ExposureProc,,,,vowel 1,vowel 2,,,,Block1,d1_f0_9_42_f2_30_45_dur_0_250_num_114.wav,,,,
v4_BCL_f2_d,7,1,<?xml version="1.0"?>\n<Clock xmlns:dt="urn:schemas-microsoft-com:datatypes"><Description dt:dt="string">E-Prime Primary Realtime Clock</Description><StartTime><Timestamp dt:dt="int">0</Timestamp><DateUtc dt:dt="string">2014-10-10T19:01:44Z</DateUtc></StartTime><FrequencyChanges><FrequencyChange><Frequency dt:dt="r8">2327520000</Frequency><Timestamp dt:dt="r8">869903446559</Timestamp><Current dt:dt="r8">0</Current><DateUtc dt:dt="string">2014-10-10T19:01:44Z</DateUtc></FrequencyChange></FrequencyChanges></Clock>\n,v4_BCL_f2_d-7-1,60.001,1.0.0.229,1,-1519872893,2.0.10.242,2.0.10.242,10-10-2014,10/10/2014 7:01:44 PM,15:01:44,2.0.10.147,42,,,26,1,24,,,,,,,2,,,g,,0.252,,,9.07,,,29.39,,,,,,ExposureProc,,,,vowel 1,vowel 2,,,,Block1,g2_f0_9_07_f2_29_39_dur_0_252_num_592.wav,,,,
v4_BCL_f2_d,7,1,<?xml version="1.0"?>\n<Clock xmlns:dt="urn:schemas-microsoft-com:datatypes"><Description dt:dt="string">E-Prime Primary Realtime Clock</Description><StartTime><Timestamp dt:dt="int">0</Timestamp><DateUtc dt:dt="string">2014-10-10T19:01:44Z</DateUtc></StartTime><FrequencyChanges><FrequencyChange><Frequency dt:dt="r8">2327520000</Frequency><Timestamp dt:dt="r8">869903446559</Timestamp><Current dt:dt="r8">0</Current><DateUtc dt:dt="string">2014-10-10T19:01:44Z</DateUtc></FrequencyChange></FrequencyChanges></Clock>\n,v4_BCL_f2_d-7-1,60.001,1.0.0.229,1,-1519872893,2.0.10.242,2.0.10.242,10-10-2014,10/10/2014 7:01:44 PM,15:01:44,2.0.10.147,43,,,8,1,25,,,,,,,2,,,b,,0.247,,,9.42,,,29.01,,,,,,ExposureProc,,,,vowel 1,vowel 2,,,,Block1,b2_f0_9_42_f2_29_01_dur_0_247_num_318.wav,,,,
v4_BCL_f2_d,7,1,<?xml version="1.0"?>\n<Clock xmlns:dt="urn:schemas-microsoft-com:datatypes"><Description dt:dt="string">E-Prime Primary Realtime Clock</Description><StartTime><Timestamp dt:dt="int">0</Timestamp><DateUtc dt:dt="string">2014-10-10T19:01:44Z</DateUtc></StartTime><FrequencyChanges><FrequencyChange><Frequency dt:dt="r8">2327520000</Frequency><Timestamp dt:dt="r8">869903446559</Timestamp><Current dt:dt="r8">0</Current><DateUtc dt:dt="string">2014-10-10T19:01:44Z</DateUtc></FrequencyChange></FrequencyChanges></Clock>\n,v4_BCL_f2_d-7-1,60.001,1.0.0.229,1,-1519872893,2.0.10.242,2.0.10.242,10-10-2014,10/10/2014 7:01:44 PM,15:01:44,2.0.10.147,44,,,16,1,26,,,,,,,1,,,d,,0.25,,,9.57,,,31.18,,,,,,ExposureProc,,,,vowel 1,vowel 2,,,,Block1,d1_f0_9_57_f2_31_18_dur_0_250_num_131.wav,,,,
v4_BCL_f2_d,7,1,<?xml version="1.0"?>\n<Clock xmlns:dt="urn:schemas-microsoft-com:datatypes"><Description dt:dt="string">E-Prime Primary Realtime Clock</Description><StartTime><Timestamp dt:dt="int">0</Timestamp><DateUtc dt:dt="string">2014-10-10T19:01:44Z</DateUtc></StartTime><FrequencyChanges><FrequencyChange><Frequency dt:dt="r8">2327520000</Frequency><Timestamp dt:dt="r8">869903446559</Timestamp><Current dt:dt="r8">0</Current><DateUtc dt:dt="string">2014-10-10T19:01:44Z</DateUtc></FrequencyChange></FrequencyChanges></Clock>\n,v4_BCL_f2_d-7-1,60.001,1.0.0.229,1,-1519872893,2.0.10.242,2.0.10.242,10-10-2014,10/10/2014 7:01:44 PM,15:01:44,2.0.10.147,45,,,27,1,27,,,,,,,1,,,g,,0.247,,,8.96,,,31.6,,,,,,ExposureProc,,,,vowel 1,vowel 2,,,,Block1,g1_f0_8_96_f2_31_60_dur_0_247_num_258.wav,,,,
v4_BCL_f2_d,7,1,<?xml version="1.0"?>\n<Clock xmlns:dt="urn:schemas-microsoft-com:datatypes"><Description dt:dt="string">E-Prime Primary Realtime Clock</Description><StartTime><Timestamp dt:dt="int">0</Timestamp><DateUtc dt:dt="string">2014-10-10T19:01:44Z</DateUtc></StartTime><FrequencyChanges><FrequencyChange><Frequency dt:dt="r8">2327520000</Frequency><Timestamp dt:dt="r8">869903446559</Timestamp><Current dt:dt="r8">0</Current><DateUtc dt:dt="string">2014-10-10T19:01:44Z</DateUtc></FrequencyChange></FrequencyChanges></Clock>\n,v4_BCL_f2_d-7-1,60.001,1.0.0.229,1,-1519872893,2.0.10.242,2.0.10.242,10-10-2014,10/10/2014 7:01:44 PM,15:01:44,2.0.10.147,46,,,6,1,28,,,,,,,2,,,b,,0.251,,,9.34,,,28.71,,,,,,ExposureProc,,,,vowel 1,vowel 2,,,,Block1,b2_f0_9_34_f2_28_71_dur_0_251_num_304.wav,,,,
v4_BCL_f2_d,7,1,<?xml version="1.0"?>\n<Clock xmlns:dt="urn:schemas-microsoft-com:datatypes"><Description dt:dt="string">E-Prime Primary Realtime Clock</Description><StartTime><Timestamp dt:dt="int">0</Timestamp><DateUtc dt:dt="string">2014-10-10T19:01:44Z</DateUtc></StartTime><FrequencyChanges><FrequencyChange><Frequency dt:dt="r8">2327520000</Frequency><Timestamp dt:dt="r8">869903446559</Timestamp><Current dt:dt="r8">0</Current><DateUtc dt:dt="string">2014-10-10T19:01:44Z</DateUtc></FrequencyChange></FrequencyChanges></Clock>\n,v4_BCL_f2_d-7-1,60.001,1.0.0.229,1,-1519872893,2.0.10.242,2.0.10.242,10-10-2014,10/10/2014 7:01:44 PM,15:01:44,2.0.10.147,47,,,12,1,29,,,,,,,2,,,b,,0.247,,,8.57,,,30.45,,,,,,ExposureProc,,,,vowel 1,vowel 2,,,,Block1,b2_f0_8_57_f2_30_45_dur_0_247_num_352.wav,,,,
v4_BCL_f2_d,7,1,<?xml version="1.0"?>\n<Clock xmlns:dt="urn:schemas-microsoft-com:datatypes"><Description dt:dt="string">E-Prime Primary Realtime Clock</Description><StartTime><Timestamp dt:dt="int">0</Timestamp><DateUtc dt:dt="string">2014-10-10T19:01:44Z</DateUtc></StartTime><FrequencyChanges><FrequencyChange><Frequency dt:dt="r8">2327520000</Frequency><Timestamp dt:dt="r8">869903446559</Timestamp><Current dt:dt="r8">0</Current><DateUtc dt:dt="string">2014-10-10T19:01:44Z</DateUtc></FrequencyChange></FrequencyChanges></Clock>\n,v4_BCL_f2_d-7-1,60.001,1.0.0.229,1,-1519872893,2.0.10.242,2.0.10.242,10-10-2014,10/10/2014 7:01:44 PM,15:01:44,2.0.10.147,48,,,1,1,30,,,,,,,1,,,b,,0.248,,,9.31,,,30.98,,,,,,ExposureProc,,,,Vowel 1,Vowel 2,,,,Block1,b1_f0_9_31_f2_30_98_dur_0_248_num_43.wav,,,,
v4_BCL_f2_d,7,1,<?xml version="1.0"?>\n<Clock xmlns:dt="urn:schemas-microsoft-com:datatypes"><Description dt:dt="string">E-Prime Primary Realtime Clock</Description><StartTime><Timestamp dt:dt="int">0</Timestamp><DateUtc dt:dt="string">2014-10-10T19:01:44Z</DateUtc></StartTime><FrequencyChanges><FrequencyChange><Frequency dt:dt="r8">2327520000</Frequency><Timestamp dt:dt="r8">869903446559</Timestamp><Current dt:dt="r8">0</Current><DateUtc dt:dt="string">2014-10-10T19:01:44Z</DateUtc></FrequencyChange></FrequencyChanges></Clock>\n,v4_BCL_f2_d-7-1,60.001,1.0.0.229,1,-1519872893,2.0.10.242,2.0.10.242,10-10-2014,10/10/2014 7:01:44 PM,15:01:44,2.0.10.147,49,,,17,1,31,,,,,,,2,,,d,,0.254,,,9.11,,,29.43,,,,,,ExposureProc,,,,vowel 1,vowel 2,,,,Block1,d2_f0_9_11_f2_29_43_dur_0_254_num_423.wav,,,,
v4_BCL_f2_d,7,1,<?xml version="1.0"?>\n<Clock xmlns:dt="urn:schemas-microsoft-com:datatypes"><Description dt:dt="string">E-Prime Primary Realtime Clock</Description><StartTime><Timestamp dt:dt="int">0</Timestamp><DateUtc dt:dt="string">2014-10-10T19:01:44Z</DateUtc></StartTime><FrequencyChanges><FrequencyChange><Frequency dt:dt="r8">2327520000</Frequency><Timestamp dt:dt="r8">869903446559</Timestamp><Current dt:dt="r8">0</Current><DateUtc dt:dt="string">2014-10-10T19:01:44Z</DateUtc></FrequencyChange></FrequencyChanges></Clock>\n,v4_BCL_f2_d-7-1,60.001,1.0.0.229,1,-1519872893,2.0.10.242,2.0.10.242,10-10-2014,10/10/2014 7:01:44 PM,15:01:44,2.0.10.147,50,,,21,1,32,,,,,,,1,,,d,,0.244,,,8.88,,,31.59,,,,,,ExposureProc,,,,vowel 1,vowel 2,,,,Block1,d1_f0_8_88_f2_31_59_dur_0_244_num_107.wav,,,,
v4_BCL_f2_d,7,1,<?xml version="1.0"?>\n<Clock xmlns:dt="urn:schemas-microsoft-com:datatypes"><Description dt:dt="string">E-Prime Primary Realtime Clock</Description><StartTime><Timestamp dt:dt="int">0</Timestamp><DateUtc dt:dt="string">2014-10-10T19:01:44Z</DateUtc></StartTime><FrequencyChanges><FrequencyChange><Frequency dt:dt="r8">2327520000</Frequency><Timestamp dt:dt="r8">869903446559</Timestamp><Current dt:dt="r8">0</Current><DateUtc dt:dt="string">2014-10-10T19:01:44Z</DateUtc></FrequencyChange></FrequencyChanges></Clock>\n,v4_BCL_f2_d-7-1,60.001,1.0.0.229,1,-1519872893,2.0.10.242,2.0.10.242,10-10-2014,10/10/2014 7:01:44 PM,15:01:44,2.0.10.147,51,,,18,1,33,,,,,,,2,,,d,,0.249,,,8.59,,,29.81,,,,,,ExposureProc,,,,vowel 1,vowel 2,,,,Block1,d2_f0_8_59_f2_29_81_dur_0_249_num_463.wav,,,,
v4_BCL_f2_d,7,1,<?xml version="1.0"?>\n<Clock xmlns:dt="urn:schemas-microsoft-com:datatypes"><Description dt:dt="string">E-Prime Primary Realtime Clock</Description><StartTime><Timestamp dt:dt="int">0</Timestamp><DateUtc dt:dt="string">2014-10-10T19:01:44Z</DateUtc></StartTime><FrequencyChanges><FrequencyChange><Frequency dt:dt="r8">2327520000</Frequency><Timestamp dt:dt="r8">869903446559</Timestamp><Current dt:dt="r8">0</Current><DateUtc dt:dt="string">2014-10-10T19:01:44Z</DateUtc></FrequencyChange></FrequencyChanges></Clock>\n,v4_BCL_f2_d-7-1,60.001,1.0.0.229,1,-1519872893,2.0.10.242,2.0.10.242,10-10-2014,10/10/2014 7:01:44 PM,15:01:44,2.0.10.147,52,,,23,1,34,,,,,,,2,,,d,,0.252,,,8.17,,,29.6,,,,,,ExposureProc,,,,vowel 1,vowel 2,,,,Block1,d2_f0_8_17_f2_29_60_dur_0_252_num_462.wav,,,,
v4_BCL_f2_d,7,1,<?xml version="1.0"?>\n<Clock xmlns:dt="urn:schemas-microsoft-com:datatypes"><Description dt:dt="string">E-Prime Primary Realtime Clock</Description><StartTime><Timestamp dt:dt="int">0</Timestamp><DateUtc dt:dt="string">2014-10-10T19:01:44Z</DateUtc></StartTime><FrequencyChanges><FrequencyChange><Frequency dt:dt="r8">2327520000</Frequency><Timestamp dt:dt="r8">869903446559</Timestamp><Current dt:dt="r8">0</Current><DateUtc dt:dt="string">2014-10-10T19:01:44Z</DateUtc></FrequencyChange></FrequencyChanges></Clock>\n,v4_BCL_f2_d-7-1,60.001,1.0.0.229,1,-1519872893,2.0.10.242,2.0.10.242,10-10-2014,10/10/2014 7:01:44 PM,15:01:44,2.0.10.147,53,,,11,1,35,,,,,,,1,,,b,,0.246,,,9.17,,,29.8,,,,,,ExposureProc,,,,vowel 1,vowel 2,,,,Block1,b1_f0_9_17_f2_29_80_dur_0_246_num_91.wav,,,,
v4_BCL_f2_d,7,1,<?xml version="1.0"?>\n<Clock xmlns:dt="urn:schemas-microsoft-com:datatypes"><Description dt:dt="string">E-Prime Primary Realtime Clock</Description><StartTime><Timestamp dt:dt="int">0</Timestamp><DateUtc dt:dt="string">2014-10-10T19:01:44Z</DateUtc></StartTime><FrequencyChanges><FrequencyChange><Frequency dt:dt="r8">2327520000</Frequency><Timestamp dt:dt="r8">869903446559</Timestamp><Current dt:dt="r8">0</Current><DateUtc dt:dt="string">2014-10-10T19:01:44Z</DateUtc></FrequencyChange></FrequencyChanges></Clock>\n,v4_BCL_f2_d-7-1,60.001,1.0.0.229,1,-1519872893,2.0.10.242,2.0.10.242,10-10-2014,10/10/2014 7:01:44 PM,15:01:44,2.0.10.147,54,,,28,1,36,,,,,,,1,,,g,,0.251,,,8.85,,,31.63,,,,,,ExposureProc,,,,vowel 1,vowel 2,,,,Block1,g1_f0_8_85_f2_31_63_dur_0_251_num_293.wav,,,,
v4_BCL_f2_d,7,1,<?xml version="1.0"?>\n<Clock xmlns:dt="urn:schemas-microsoft-com:datatypes"><Description dt:dt="string">E-Prime Primary Realtime Clock</Description><StartTime><Timestamp dt:dt="int">0</Timestamp><DateUtc dt:dt="string">2014-10-10T19:01:44Z</DateUtc></StartTime><FrequencyChanges><FrequencyChange><Frequency dt:dt="r8">2327520000</Frequency><Timestamp dt:dt="r8">869903446559</Timestamp><Current dt:dt="r8">0</Current><DateUtc dt:dt="string">2014-10-10T19:01:44Z</DateUtc></FrequencyChange></FrequencyChanges></Clock>\n,v4_BCL_f2_d-7-1,60.001,1.0.0.229,1,-1519872893,2.0.10.242,2.0.10.242,10-10-2014,10/10/2014 7:01:44 PM,15:01:44,2.0.10.147,55,,,,,,1,1,1,,,,1,,,d,,0.251,,,9.59,,,30.47,,,,,,TrialProc1,,,,vowel 1,vowel 2,1,163,185078,Block2,d1_f0_9_59_f2_30_47_dur_0_251_num_106.wav,,,,
v4_BCL_f2_d,7,1,<?xml version="1.0"?>\n<Clock xmlns:dt="urn:schemas-microsoft-com:datatypes"><Description dt:dt="string">E-Prime Primary Realtime Clock</Description><StartTime><Timestamp dt:dt="int">0</Timestamp><DateUtc dt:dt="string">2014-10-10T19:01:44Z</DateUtc></StartTime><FrequencyChanges><FrequencyChange><Frequency dt:dt="r8">2327520000</Frequency><Timestamp dt:dt="r8">869903446559</Timestamp><Current dt:dt="r8">0</Current><DateUtc dt:dt="string">2014-10-10T19:01:44Z</DateUtc></FrequencyChange></FrequencyChanges></Clock>\n,v4_BCL_f2_d-7-1,60.001,1.0.0.229,1,-1519872893,2.0.10.242,2.0.10.242,10-10-2014,10/10/2014 7:01:44 PM,15:01:44,2.0.10.147,56,,,,,,2,1,2,,,,1,,,d,,0.249,,,9.54,,,30.96,,,,,,TrialProc1,,,,vowel 1,vowel 2,1,238,186120,Block2,d1_f0_9_54_f2_30_96_dur_0_249_num_125.wav,,,,
v4_BCL_f2_d,7,1,<?xml version="1.0"?>\n<Clock xmlns:dt="urn:schemas-microsoft-com:datatypes"><Description dt:dt="string">E-Prime Primary Realtime Clock</Description><StartTime><Timestamp dt:dt="int">0</Timestamp><DateUtc dt:dt="string">2014-10-10T19:01:44Z</DateUtc></StartTime><FrequencyChanges><FrequencyChange><Frequency dt:dt="r8">2327520000</Frequency><Timestamp dt:dt="r8">869903446559</Timestamp><Current dt:dt="r8">0</Current><DateUtc dt:dt="string">2014-10-10T19:01:44Z</DateUtc></FrequencyChange></FrequencyChanges></Clock>\n,v4_BCL_f2_d-7-1,60.001,1.0.0.229,1,-1519872893,2.0.10.242,2.0.10.242,10-10-2014,10/10/2014 7:01:44 PM,15:01:44,2.0.10.147,57,,,,,,3,1,3,,,,1,,,d,,0.245,,,9.59,,,30.22,,,,,,TrialProc1,,,,vowel 1,vowel 2,1,100,187032,Block2,d1_f0_9_59_f2_30_22_dur_0_245_num_169.wav,,,,
v4_BCL_f2_d,7,1,<?xml version="1.0"?>\n<Clock xmlns:dt="urn:schemas-microsoft-com:datatypes"><Description dt:dt="string">E-Prime Primary Realtime Clock</Description><StartTime><Timestamp dt:dt="int">0</Timestamp><DateUtc dt:dt="string">2014-10-10T19:01:44Z</DateUtc></StartTime><FrequencyChanges><FrequencyChange><Frequency dt:dt="r8">2327520000</Frequency><Timestamp dt:dt="r8">869903446559</Timestamp><Current dt:dt="r8">0</Current><DateUtc dt:dt="string">2014-10-10T19:01:44Z</DateUtc></FrequencyChange></FrequencyChanges></Clock>\n,v4_BCL_f2_d-7-1,60.001,1.0.0.229,1,-1519872893,2.0.10.242,2.0.10.242,10-10-2014,10/10/2014 7:01:44 PM,15:01:44,2.0.10.147,58,,,,,,4,1,4,,,,2,,,d,,0.253,,,8.92,,,29.14,,,,,,TrialProc1,,,,vowel 1,vowel 2,2,182,188031,Block2,d2_f0_8_92_f2_29_14_dur_0_253_num_493.wav,,,,
v4_BCL_f2_d,7,1,<?xml version="1.0"?>\n<Clock xmlns:dt="urn:schemas-microsoft-com:datatypes"><Description dt:dt="string">E-Prime Primary Realtime Clock</Description><StartTime><Timestamp dt:dt="int">0</Timestamp><DateUtc dt:dt="string">2014-10-10T19:01:44Z</DateUtc></StartTime><FrequencyChanges><FrequencyChange><Frequency dt:dt="r8">2327520000</Frequency><Timestamp dt:dt="r8">869903446559</Timestamp><Current dt:dt="r8">0</Current><DateUtc dt:dt="string">2014-10-10T19:01:44Z</DateUtc></FrequencyChange></FrequencyChanges></Clock>\n,v4_BCL_f2_d-7-1,60.001,1.0.0.229,1,-1519872893,2.0.10.242,2.0.10.242,10-10-2014,10/10/2014 7:01:44 PM,15:01:44,2.0.10.147,59,,,,,,5,1,5,,,,2,,,d,,0.256,,,9,,,29.56,,,,,,TrialProc1,,,,vowel 1,vowel 2,1,141,188973,Block2,d2_f0_9_00_f2_29_56_dur_0_256_num_475.wav,,,,
v4_BCL_f2_d,7,1,<?xml version="1.0"?>\n<Clock xmlns:dt="urn:schemas-microsoft-com:datatypes"><Description dt:dt="string">E-Prime Primary Realtime Clock</Description><StartTime><Timestamp dt:dt="int">0</Timestamp><DateUtc dt:dt="string">2014-10-10T19:01:44Z</DateUtc></StartTime><FrequencyChanges><FrequencyChange><Frequency dt:dt="r8">2327520000</Frequency><Timestamp dt:dt="r8">869903446559</Timestamp><Current dt:dt="r8">0</Current><DateUtc dt:dt="string">2014-10-10T19:01:44Z</DateUtc></FrequencyChange></FrequencyChanges></Clock>\n,v4_BCL_f2_d-7-1,60.001,1.0.0.229,1,-1519872893,2.0.10.242,2.0.10.242,10-10-2014,10/10/2014 7:01:44 PM,15:01:44,2.0.10.147,60,,,,,,6,1,6,,,,2,,,d,,0.246,,,9.02,,,29.36,,,,,,TrialProc1,,,,vowel 1,vowel 2,1,190,189972,Block2,d2_f0_9_02_f2_29_36_dur_0_246_num_406.wav,,,,
v4_BCL_f2_d,7,1,<?xml version="1.0"?>\n<Clock xmlns:dt="urn:schemas-microsoft-com:datatypes"><Description dt:dt="string">E-Prime Primary Realtime Clock</Description><StartTime><Timestamp dt:dt="int">0</Timestamp><DateUtc dt:dt="string">2014-10-10T19:01:44Z</DateUtc></StartTime><FrequencyChanges><FrequencyChange><Frequency dt:dt="r8">2327520000</Frequency><Timestamp dt:dt="r8">869903446559</Timestamp><Current dt:dt="r8">0</Current><DateUtc dt:dt="string">2014-10-10T19:01:44Z</DateUtc></FrequencyChange></FrequencyChanges></Clock>\n,v4_BCL_f2_d-7-1,60.001,1.0.0.229,1,-1519872893,2.0.10.242,2.0.10.242,10-10-2014,10/10/2014 7:01:44 PM,15:01:44,2.0.10.147,61,,,,,,7,1,7,,,,1,,,d,,0.257,,,8.89,,,31.77,,,,,,TrialProc1,,,,vowel 1,vowel 2,1,136,190918,Block2,d1_f0_8_89_f2_31_77_dur_0_257_num_186.wav,,,,
v4_BCL_f2_d,7,1,<?xml version="1.0"?>\n<Clock xmlns:dt="urn:schemas-microsoft-com:datatypes"><Description dt:dt="string">E-Prime Primary Realtime Clock</Description><StartTime><Timestamp dt:dt="int">0</Timestamp><DateUtc dt:dt="string">2014-10-10T19:01:44Z</DateUtc></StartTime><FrequencyChanges><FrequencyChange><Frequency dt:dt="r8">2327520000</Frequency><Timestamp dt:dt="r8">869903446559</Timestamp><Current dt:dt="r8">0</Current><DateUtc dt:dt="string">2014-10-10T19:01:44Z</DateUtc></FrequencyChange></FrequencyChanges></Clock>\n,v4_BCL_f2_d-7-1,60.001,1.0.0.229,1,-1519872893,2.0.10.242,2.0.10.242,10-10-2014,10/10/2014 7:01:44 PM,15:01:44,2.0.10.147,62,,,,,,8,1,8,,,,2,,,d,,0.252,,,8.75,,,29.44,,,,,,TrialProc1,,,,vowel 1,vowel 2,1,148,191880,Block2,d2_f0_8_75_f2_29_44_dur_0_252_num_461.wav,,,,
v4_BCL_f2_d,7,1,<?xml version="1.0"?>\n<Clock xmlns:dt="urn:schemas-microsoft-com:datatypes"><Description dt:dt="string">E-Prime Primary Realtime Clock</Description><StartTime><Timestamp dt:dt="int">0</Timestamp><DateUtc dt:dt="string">2014-10-10T19:01:44Z</DateUtc></StartTime><FrequencyChanges><FrequencyChange><Frequency dt:dt="r8">2327520000</Frequency><Timestamp dt:dt="r8">869903446559</Timestamp><Current dt:dt="r8">0</Current><DateUtc dt:dt="string">2014-10-10T19:01:44Z</DateUtc></FrequencyChange></FrequencyChanges></Clock>\n,v4_BCL_f2_d-7-1,60.001,1.0.0.229,1,-1519872893,2.0.10.242,2.0.10.242,10-10-2014,10/10/2014 7:01:44 PM,15:01:44,2.0.10.147,63,,,,,,9,1,9,,,,1,,,d,,0.247,,,9.1,,,30.29,,,,,,TrialProc1,,,,vowel 1,vowel 2,1,82,192781,Block2,d1_f0_9_10_f2_30_29_dur_0_247_num_194.wav,,,,
v4_BCL_f2_d,7,1,<?xml version="1.0"?>\n<Clock xmlns:dt="urn:schemas-microsoft-com:datatypes"><Description dt:dt="string">E-Prime Primary Realtime Clock</Description><StartTime><Timestamp dt:dt="int">0</Timestamp><DateUtc dt:dt="string">2014-10-10T19:01:44Z</DateUtc></StartTime><FrequencyChanges><FrequencyChange><Frequency dt:dt="r8">2327520000</Frequency><Timestamp dt:dt="r8">869903446559</Timestamp><Current dt:dt="r8">0</Current><DateUtc dt:dt="string">2014-10-10T19:01:44Z</DateUtc></FrequencyChange></FrequencyChanges></Clock>\n,v4_BCL_f2_d-7-1,60.001,1.0.0.229,1,-1519872893,2.0.10.242,2.0.10.242,10-10-2014,10/10/2014 7:01:44 PM,15:01:44,2.0.10.147,64,,,,,,10,1,10,,,,2,,,d,,0.25,,,8.49,,,28.77,,,,,,TrialProc1,,,,vowel 1,vowel 2,1,531,194113,Block2,d2_f0_8_49_f2_28_77_dur_0_250_num_433.wav,,,,
v4_BCL_f2_d,7,1,<?xml version="1.0"?>\n<Clock xmlns:dt="urn:schemas-microsoft-com:datatypes"><Description dt:dt="string">E-Prime Primary Realtime Clock</Description><StartTime><Timestamp dt:dt="int">0</Timestamp><DateUtc dt:dt="string">2014-10-10T19:01:44Z</DateUtc></StartTime><FrequencyChanges><FrequencyChange><Frequency dt:dt="r8">2327520000</Frequency><Timestamp dt:dt="r8">869903446559</Timestamp><Current dt:dt="r8">0</Current><DateUtc dt:dt="string">2014-10-10T19:01:44Z</DateUtc></FrequencyChange></FrequencyChanges></Clock>\n,v4_BCL_f2_d-7-1,60.001,1.0.0.229,1,-1519872893,2.0.10.242,2.0.10.242,10-10-2014,10/10/2014 7:01:44 PM,15:01:44,2.0.10.147,65,,,,,,11,1,11,,,,2,,,d,,0.25,,,9.25,,,29.37,,,,,,TrialProc1,,,,vowel 1,vowel 2,1,588,195520,Block2,d2_f0_9_25_f2_29_37_dur_0_250_num_417.wav,,,,
v4_BCL_f2_d,7,1,<?xml version="1.0"?>\n<Clock xmlns:dt="urn:schemas-microsoft-com:datatypes"><Description dt:dt="string">E-Prime Primary Realtime Clock</Description><StartTime><Timestamp dt:dt="int">0</Timestamp><DateUtc dt:dt="string">2014-10-10T19:01:44Z</DateUtc></StartTime><FrequencyChanges><FrequencyChange><Frequency dt:dt="r8">2327520000</Frequency><Timestamp dt:dt="r8">869903446559</Timestamp><Current dt:dt="r8">0</Current><DateUtc dt:dt="string">2014-10-10T19:01:44Z</DateUtc></FrequencyChange></FrequencyChanges></Clock>\n,v4_BCL_f2_d-7-1,60.001,1.0.0.229,1,-1519872893,2.0.10.242,2.0.10.242,10-10-2014,10/10/2014 7:01:44 PM,15:01:44,2.0.10.147,66,,,,,,12,1,12,,,,1,,,d,,0.249,,,8.19,,,31.28,,,,,,TrialProc1,,,,vowel 1,vowel 2,1,1001,197333,Block2,d1_f0_8_19_f2_31_28_dur_0_249_num_108.wav,,,,
v4_BCL_f2_d,7,1,<?xml version="1.0"?>\n<Clock xmlns:dt="urn:schemas-microsoft-com:datatypes"><Description dt:dt="string">E-Prime Primary Realtime Clock</Description><StartTime><Timestamp dt:dt="int">0</Timestamp><DateUtc dt:dt="string">2014-10-10T19:01:44Z</DateUtc></StartTime><FrequencyChanges><FrequencyChange><Frequency dt:dt="r8">2327520000</Frequency><Timestamp dt:dt="r8">869903446559</Timestamp><Current dt:dt="r8">0</Current><DateUtc dt:dt="string">2014-10-10T19:01:44Z</DateUtc></FrequencyChange></FrequencyChanges></Clock>\n,v4_BCL_f2_d-7-1,60.001,1.0.0.229,1,-1519872893,2.0.10.242,2.0.10.242,10-10-2014,10/10/2014 7:01:44 PM,15:01:44,2.0.10.147,67,,,,,,13,1,13,,,,1,,,d,,0.249,,,9.92,,,30.81,,,,,,TrialProc1,,,,vowel 1,vowel 2,1,555,198704,Block2,d1_f0_9_92_f2_30_81_dur_0_249_num_159.wav,,,,
v4_BCL_f2_d,7,1,<?xml version="1.0"?>\n<Clock xmlns:dt="urn:schemas-microsoft-com:datatypes"><Description dt:dt="string">E-Prime Primary Realtime Clock</Description><StartTime><Timestamp dt:dt="int">0</Timestamp><DateUtc dt:dt="string">2014-10-10T19:01:44Z</DateUtc></StartTime><FrequencyChanges><FrequencyChange><Frequency dt:dt="r8">2327520000</Frequency><Timestamp dt:dt="r8">869903446559</Timestamp><Current dt:dt="r8">0</Current><DateUtc dt:dt="string">2014-10-10T19:01:44Z</DateUtc></FrequencyChange></FrequencyChanges></Clock>\n,v4_BCL_f2_d-7-1,60.001,1.0.0.229,1,-1519872893,2.0.10.242,2.0.10.242,10-10-2014,10/10/2014 7:01:44 PM,15:01:44,2.0.10.147,68,,,,,,14,1,14,,,,2,,,d,,0.244,,,9.02,,,29.13,,,,,,TrialProc1,,,,vowel 1,vowel 2,1,241,199756,Block2,d2_f0_9_02_f2_29_13_dur_0_244_num_490.wav,,,,
v4_BCL_f2_d,7,1,<?xml version="1.0"?>\n<Clock xmlns:dt="urn:schemas-microsoft-com:datatypes"><Description dt:dt="string">E-Prime Primary Realtime Clock</Description><StartTime><Timestamp dt:dt="int">0</Timestamp><DateUtc dt:dt="string">2014-10-10T19:01:44Z</DateUtc></StartTime><FrequencyChanges><FrequencyChange><Frequency dt:dt="r8">2327520000</Frequency><Timestamp dt:dt="r8">869903446559</Timestamp><Current dt:dt="r8">0</Current><DateUtc dt:dt="string">2014-10-10T19:01:44Z</DateUtc></FrequencyChange></FrequencyChanges></Clock>\n,v4_BCL_f2_d-7-1,60.001,1.0.0.229,1,-1519872893,2.0.10.242,2.0.10.242,10-10-2014,10/10/2014 7:01:44 PM,15:01:44,2.0.10.147,69,,,,,,15,1,15,,,,2,,,d,,0.254,,,9.68,,,28.83,,,,,,TrialProc1,,,,vowel 1,vowel 2,1,383,200948,Block2,d2_f0_9_68_f2_28_83_dur_0_254_num_470.wav,,,,
v4_BCL_f2_d,7,1,<?xml version="1.0"?>\n<Clock xmlns:dt="urn:schemas-microsoft-com:datatypes"><Description dt:dt="string">E-Prime Primary Realtime Clock</Description><StartTime><Timestamp dt:dt="int">0</Timestamp><DateUtc dt:dt="string">2014-10-10T19:01:44Z</DateUtc></StartTime><FrequencyChanges><FrequencyChange><Frequency dt:dt="r8">2327520000</Frequency><Timestamp dt:dt="r8">869903446559</Timestamp><Current dt:dt="r8">0</Current><DateUtc dt:dt="string">2014-10-10T19:01:44Z</DateUtc></FrequencyChange></FrequencyChanges></Clock>\n,v4_BCL_f2_d-7-1,60.001,1.0.0.229,1,-1519872893,2.0.10.242,2.0.10.242,10-10-2014,10/10/2014 7:01:44 PM,15:01:44,2.0.10.147,70,,,,,,16,1,16,,,,2,,,d,,0.249,,,9.56,,,28.53,,,,,,TrialProc1,,,,vowel 1,vowel 2,1,417,202182,Block2,d2_f0_9_56_f2_28_53_dur_0_249_num_451.wav,,,,
v4_BCL_f2_d,7,1,<?xml version="1.0"?>\n<Clock xmlns:dt="urn:schemas-microsoft-com:datatypes"><Description dt:dt="string">E-Prime Primary Realtime Clock</Description><StartTime><Timestamp dt:dt="int">0</Timestamp><DateUtc dt:dt="string">2014-10-10T19:01:44Z</DateUtc></StartTime><FrequencyChanges><FrequencyChange><Frequency dt:dt="r8">2327520000</Frequency><Timestamp dt:dt="r8">869903446559</Timestamp><Current dt:dt="r8">0</Current><DateUtc dt:dt="string">2014-10-10T19:01:44Z</DateUtc></FrequencyChange></FrequencyChanges></Clock>\n,v4_BCL_f2_d-7-1,60.001,1.0.0.229,1,-1519872893,2.0.10.242,2.0.10.242,10-10-2014,10/10/2014 7:01:44 PM,15:01:44,2.0.10.147,71,,,,,,17,1,17,,,,1,,,d,,0.25,,,11.22,,,30.05,,,,,,TrialProc1,,,,vowel 1,vowel 2,1,794,203793,Block2,d1_f0_11_22_f2_30_05_dur_0_250_num_141.wav,,,,
v4_BCL_f2_d,7,1,<?xml version="1.0"?>\n<Clock xmlns:dt="urn:schemas-microsoft-com:datatypes"><Description dt:dt="string">E-Prime Primary Realtime Clock</Description><StartTime><Timestamp dt:dt="int">0</Timestamp><DateUtc dt:dt="string">2014-10-10T19:01:44Z</DateUtc></StartTime><FrequencyChanges><FrequencyChange><Frequency dt:dt="r8">2327520000</Frequency><Timestamp dt:dt="r8">869903446559</Timestamp><Current dt:dt="r8">0</Current><DateUtc dt:dt="string">2014-10-10T19:01:44Z</DateUtc></FrequencyChange></FrequencyChanges></Clock>\n,v4_BCL_f2_d-7-1,60.001,1.0.0.229,1,-1519872893,2.0.10.242,2.0.10.242,10-10-2014,10/10/2014 7:01:44 PM,15:01:44,2.0.10.147,72,,,,,,18,1,18,,,,2,,,d,,0.249,,,8.79,,,28.87,,,,,,TrialProc1,,,,vowel 1,vowel 2,1,602,205217,Block2,d2_f0_8_79_f2_28_87_dur_0_249_num_471.wav,,,,
v4_BCL_f2_d,7,1,<?xml version="1.0"?>\n<Clock xmlns:dt="urn:schemas-microsoft-com:datatypes"><Description dt:dt="string">E-Prime Primary Realtime Clock</Description><StartTime><Timestamp dt:dt="int">0</Timestamp><DateUtc dt:dt="string">2014-10-10T19:01:44Z</DateUtc></StartTime><FrequencyChanges><FrequencyChange><Frequency dt:dt="r8">2327520000</Frequency><Timestamp dt:dt="r8">869903446559</Timestamp><Current dt:dt="r8">0</Current><DateUtc dt:dt="string">2014-10-10T19:01:44Z</DateUtc></FrequencyChange></FrequencyChanges></Clock>\n,v4_BCL_f2_d-7-1,60.001,1.0.0.229,1,-1519872893,2.0.10.242,2.0.10.242,10-10-2014,10/10/2014 7:01:44 PM,15:01:44,2.0.10.147,73,,,,,,19,1,19,,,,2,,,d,,0.248,,,8.87,,,29.63,,,,,,TrialProc1,,,,vowel 1,vowel 2,1,551,206583,Block2,d2_f0_8_87_f2_29_63_dur_0_248_num_443.wav,,,,
v4_BCL_f2_d,7,1,<?xml version="1.0"?>\n<Clock xmlns:dt="urn:schemas-microsoft-com:datatypes"><Description dt:dt="string">E-Prime Primary Realtime Clock</Description><StartTime><Timestamp dt:dt="int">0</Timestamp><DateUtc dt:dt="string">2014-10-10T19:01:44Z</DateUtc></StartTime><FrequencyChanges><FrequencyChange><Frequency dt:dt="r8">2327520000</Frequency><Timestamp dt:dt="r8">869903446559</Timestamp><Current dt:dt="r8">0</Current><DateUtc dt:dt="string">2014-10-10T19:01:44Z</DateUtc></FrequencyChange></FrequencyChanges></Clock>\n,v4_BCL_f2_d-7-1,60.001,1.0.0.229,1,-1519872893,2.0.10.242,2.0.10.242,10-10-2014,10/10/2014 7:01:44 PM,15:01:44,2.0.10.147,74,,,,,,20,1,20,,,,1,,,d,,0.25,,,9.39,,,31.04,,,,,,TrialProc1,,,,vowel 1,vowel 2,1,474,207889,Block2,d1_f0_9_39_f2_31_04_dur_0_250_num_178.wav,,,,
v4_BCL_f2_d,7,1,<?xml version="1.0"?>\n<Clock xmlns:dt="urn:schemas-microsoft-com:datatypes"><Description dt:dt="string">E-Prime Primary Realtime Clock</Description><StartTime><Timestamp dt:dt="int">0</Timestamp><DateUtc dt:dt="string">2014-10-10T19:01:44Z</DateUtc></StartTime><FrequencyChanges><FrequencyChange><Frequency dt:dt="r8">2327520000</Frequency><Timestamp dt:dt="r8">869903446559</Timestamp><Current dt:dt="r8">0</Current><DateUtc dt:dt="string">2014-10-10T19:01:44Z</DateUtc></FrequencyChange></FrequencyChanges></Clock>\n,v4_BCL_f2_d-7-1,60.001,1.0.0.229,1,-1519872893,2.0.10.242,2.0.10.242,10-10-2014,10/10/2014 7:01:44 PM,15:01:44,2.0.10.147,75,,,,,,21,1,21,,,,2,,,d,,0.251,,,8.75,,,29.85,,,,,,TrialProc1,,,,vowel 1,vowel 2,1,579,209277,Block2,d2_f0_8_75_f2_29_85_dur_0_251_num_484.wav,,,,
v4_BCL_f2_d,7,1,<?xml version="1.0"?>\n<Clock xmlns:dt="urn:schemas-microsoft-com:datatypes"><Description dt:dt="string">E-Prime Primary Realtime Clock</Description><StartTime><Timestamp dt:dt="int">0</Timestamp><DateUtc dt:dt="string">2014-10-10T19:01:44Z</DateUtc></StartTime><FrequencyChanges><FrequencyChange><Frequency dt:dt="r8">2327520000</Frequency><Timestamp dt:dt="r8">869903446559</Timestamp><Current dt:dt="r8">0</Current><DateUtc dt:dt="string">2014-10-10T19:01:44Z</DateUtc></FrequencyChange></FrequencyChanges></Clock>\n,v4_BCL_f2_d-7-1,60.001,1.0.0.229,1,-1519872893,2.0.10.242,2.0.10.242,10-10-2014,10/10/2014 7:01:44 PM,15:01:44,2.0.10.147,76,,,,,,22,1,22,,,,2,,,d,,0.25,,,9.37,,,28.88,,,,,,TrialProc1,,,,vowel 1,vowel 2,1,565,210647,Block2,d2_f0_9_37_f2_28_88_dur_0_250_num_468.wav,,,,
v4_BCL_f2_d,7,1,<?xml version="1.0"?>\n<Clock xmlns:dt="urn:schemas-microsoft-com:datatypes"><Description dt:dt="string">E-Prime Primary Realtime Clock</Description><StartTime><Timestamp dt:dt="int">0</Timestamp><DateUtc dt:dt="string">2014-10-10T19:01:44Z</DateUtc></StartTime><FrequencyChanges><FrequencyChange><Frequency dt:dt="r8">2327520000</Frequency><Timestamp dt:dt="r8">869903446559</Timestamp><Current dt:dt="r8">0</Current><DateUtc dt:dt="string">2014-10-10T19:01:44Z</DateUtc></FrequencyChange></FrequencyChanges></Clock>\n,v4_BCL_f2_d-7-1,60.001,1.0.0.229,1,-1519872893,2.0.10.242,2.0.10.242,10-10-2014,10/10/2014 7:01:44 PM,15:01:44,2.0.10.147,77,,,,,,23,1,23,,,,2,,,d,,0.249,,,8.37,,,29.78,,,,,,TrialProc1,,,,vowel 1,vowel 2,1,623,212088,Block2,d2_f0_8_37_f2_29_78_dur_0_249_num_467.wav,,,,
v4_BCL_f2_d,7,1,<?xml version="1.0"?>\n<Clock xmlns:dt="urn:schemas-microsoft-com:datatypes"><Description dt:dt="string">E-Prime Primary Realtime Clock</Description><StartTime><Timestamp dt:dt="int">0</Timestamp><DateUtc dt:dt="string">2014-10-10T19:01:44Z</DateUtc></StartTime><FrequencyChanges><FrequencyChange><Frequency dt:dt="r8">2327520000</Frequency><Timestamp dt:dt="r8">869903446559</Timestamp><Current dt:dt="r8">0</Current><DateUtc dt:dt="string">2014-10-10T19:01:44Z</DateUtc></FrequencyChange></FrequencyChanges></Clock>\n,v4_BCL_f2_d-7-1,60.001,1.0.0.229,1,-1519872893,2.0.10.242,2.0.10.242,10-10-2014,10/10/2014 7:01:44 PM,15:01:44,2.0.10.147,78,,,,,,24,1,24,,,,1,,,d,,0.252,,,8.66,,,30.99,,,,,,TrialProc1,,,,vowel 1,vowel 2,1,522,213420,Block2,d1_f0_8_66_f2_30_99_dur_0_252_num_189.wav,,,,
v4_BCL_f2_d,7,1,<?xml version="1.0"?>\n<Clock xmlns:dt="urn:schemas-microsoft-com:datatypes"><Description dt:dt="string">E-Prime Primary Realtime Clock</Description><StartTime><Timestamp dt:dt="int">0</Timestamp><DateUtc dt:dt="string">2014-10-10T19:01:44Z</DateUtc></StartTime><FrequencyChanges><FrequencyChange><Frequency dt:dt="r8">2327520000</Frequency><Timestamp dt:dt="r8">869903446559</Timestamp><Current dt:dt="r8">0</Current><DateUtc dt:dt="string">2014-10-10T19:01:44Z</DateUtc></FrequencyChange></FrequencyChanges></Clock>\n,v4_BCL_f2_d-7-1,60.001,1.0.0.229,1,-1519872893,2.0.10.242,2.0.10.242,10-10-2014,10/10/2014 7:01:44 PM,15:01:44,2.0.10.147,79,,,,,,25,1,25,,,,2,,,d,,0.252,,,8.61,,,30.02,,,,,,TrialProc1,,,,vowel 1,vowel 2,1,691,214923,Block2,d2_f0_8_61_f2_30_02_dur_0_252_num_466.wav,,,,
v4_BCL_f2_d,7,1,<?xml version="1.0"?>\n<Clock xmlns:dt="urn:schemas-microsoft-com:datatypes"><Description dt:dt="string">E-Prime Primary Realtime Clock</Description><StartTime><Timestamp dt:dt="int">0</Timestamp><DateUtc dt:dt="string">2014-10-10T19:01:44Z</DateUtc></StartTime><FrequencyChanges><FrequencyChange><Frequency dt:dt="r8">2327520000</Frequency><Timestamp dt:dt="r8">869903446559</Timestamp><Current dt:dt="r8">0</Current><DateUtc dt:dt="string">2014-10-10T19:01:44Z</DateUtc></FrequencyChange></FrequencyChanges></Clock>\n,v4_BCL_f2_d-7-1,60.001,1.0.0.229,1,-1519872893,2.0.10.242,2.0.10.242,10-10-2014,10/10/2014 7:01:44 PM,15:01:44,2.0.10.147,80,,,,,,26,1,26,,,,2,,,d,,0.252,,,8.09,,,29.41,,,,,,TrialProc1,,,,vowel 1,vowel 2,1,383,216115,Block2,d2_f0_8_09_f2_29_41_dur_0_252_num_485.wav,,,,
v4_BCL_f2_d,7,1,<?xml version="1.0"?>\n<Clock xmlns:dt="urn:schemas-microsoft-com:datatypes"><Description dt:dt="string">E-Prime Primary Realtime Clock</Description><StartTime><Timestamp dt:dt="int">0</Timestamp><DateUtc dt:dt="string">2014-10-10T19:01:44Z</DateUtc></StartTime><FrequencyChanges><FrequencyChange><Frequency dt:dt="r8">2327520000</Frequency><Timestamp dt:dt="r8">869903446559</Timestamp><Current dt:dt="r8">0</Current><DateUtc dt:dt="string">2014-10-10T19:01:44Z</DateUtc></FrequencyChange></FrequencyChanges></Clock>\n,v4_BCL_f2_d-7-1,60.001,1.0.0.229,1,-1519872893,2.0.10.242,2.0.10.242,10-10-2014,10/10/2014 7:01:44 PM,15:01:44,2.0.10.147,81,,,,,,27,1,27,,,,2,,,d,,0.252,,,9.19,,,29.61,,,,,,TrialProc1,,,,vowel 1,vowel 2,1,505,217437,Block2,d2_f0_9_19_f2_29_61_dur_0_252_num_426.wav,,,,
v4_BCL_f2_d,7,1,<?xml version="1.0"?>\n<Clock xmlns:dt="urn:schemas-microsoft-com:datatypes"><Description dt:dt="string">E-Prime Primary Realtime Clock</Description><StartTime><Timestamp dt:dt="int">0</Timestamp><DateUtc dt:dt="string">2014-10-10T19:01:44Z</DateUtc></StartTime><FrequencyChanges><FrequencyChange><Frequency dt:dt="r8">2327520000</Frequency><Timestamp dt:dt="r8">869903446559</Timestamp><Current dt:dt="r8">0</Current><DateUtc dt:dt="string">2014-10-10T19:01:44Z</DateUtc></FrequencyChange></FrequencyChanges></Clock>\n,v4_BCL_f2_d-7-1,60.001,1.0.0.229,1,-1519872893,2.0.10.242,2.0.10.242,10-10-2014,10/10/2014 7:01:44 PM,15:01:44,2.0.10.147,82,,,,,,28,1,28,,,,2,,,d,,0.25,,,9.01,,,29.05,,,,,,TrialProc1,,,,vowel 1,vowel 2,1,451,218699,Block2,d2_f0_9_01_f2_29_05_dur_0_250_num_483.wav,,,,
v4_BCL_f2_d,7,1,<?xml version="1.0"?>\n<Clock xmlns:dt="urn:schemas-microsoft-com:datatypes"><Description dt:dt="string">E-Prime Primary Realtime Clock</Description><StartTime><Timestamp dt:dt="int">0</Timestamp><DateUtc dt:dt="string">2014-10-10T19:01:44Z</DateUtc></StartTime><FrequencyChanges><FrequencyChange><Frequency dt:dt="r8">2327520000</Frequency><Timestamp dt:dt="r8">869903446559</Timestamp><Current dt:dt="r8">0</Current><DateUtc dt:dt="string">2014-10-10T19:01:44Z</DateUtc></FrequencyChange></FrequencyChanges></Clock>\n,v4_BCL_f2_d-7-1,60.001,1.0.0.229,1,-1519872893,2.0.10.242,2.0.10.242,10-10-2014,10/10/2014 7:01:44 PM,15:01:44,2.0.10.147,83,,,,,,29,1,29,,,,2,,,d,,0.253,,,8.91,,,29.86,,,,,,TrialProc1,,,,vowel 1,vowel 2,1,408,219923,Block2,d2_f0_8_91_f2_29_86_dur_0_253_num_418.wav,,,,
v4_BCL_f2_d,7,1,<?xml version="1.0"?>\n<Clock xmlns:dt="urn:schemas-microsoft-com:datatypes"><Description dt:dt="string">E-Prime Primary Realtime Clock</Description><StartTime><Timestamp dt:dt="int">0</Timestamp><DateUtc dt:dt="string">2014-10-10T19:01:44Z</DateUtc></StartTime><FrequencyChanges><FrequencyChange><Frequency dt:dt="r8">2327520000</Frequency><Timestamp dt:dt="r8">869903446559</Timestamp><Current dt:dt="r8">0</Current><DateUtc dt:dt="string">2014-10-10T19:01:44Z</DateUtc></FrequencyChange></FrequencyChanges></Clock>\n,v4_BCL_f2_d-7-1,60.001,1.0.0.229,1,-1519872893,2.0.10.242,2.0.10.242,10-10-2014,10/10/2014 7:01:44 PM,15:01:44,2.0.10.147,84,,,,,,30,1,30,,,,1,,,d,,0.249,,,10.12,,,31.12,,,,,,TrialProc1,,,,vowel 1,vowel 2,1,674,221406,Block2,d1_f0_10_12_f2_31_12_dur_0_249_num_173.wav,,,,
v4_BCL_f2_d,7,1,<?xml version="1.0"?>\n<Clock xmlns:dt="urn:schemas-microsoft-com:datatypes"><Description dt:dt="string">E-Prime Primary Realtime Clock</Description><StartTime><Timestamp dt:dt="int">0</Timestamp><DateUtc dt:dt="string">2014-10-10T19:01:44Z</DateUtc></StartTime><FrequencyChanges><FrequencyChange><Frequency dt:dt="r8">2327520000</Frequency><Timestamp dt:dt="r8">869903446559</Timestamp><Current dt:dt="r8">0</Current><DateUtc dt:dt="string">2014-10-10T19:01:44Z</DateUtc></FrequencyChange></FrequencyChanges></Clock>\n,v4_BCL_f2_d-7-1,60.001,1.0.0.229,1,-1519872893,2.0.10.242,2.0.10.242,10-10-2014,10/10/2014 7:01:44 PM,15:01:44,2.0.10.147,85,,,,,,31,1,31,,,,2,,,d,,0.252,,,9,,,28.96,,,,,,TrialProc1,,,,vowel 1,vowel 2,1,1408,223623,Block2,d2_f0_9_00_f2_28_96_dur_0_252_num_439.wav,,,,
v4_BCL_f2_d,7,1,<?xml version="1.0"?>\n<Clock xmlns:dt="urn:schemas-microsoft-com:datatypes"><Description dt:dt="string">E-Prime Primary Realtime Clock</Description><StartTime><Timestamp dt:dt="int">0</Timestamp><DateUtc dt:dt="string">2014-10-10T19:01:44Z</DateUtc></StartTime><FrequencyChanges><FrequencyChange><Frequency dt:dt="r8">2327520000</Frequency><Timestamp dt:dt="r8">869903446559</Timestamp><Current dt:dt="r8">0</Current><DateUtc dt:dt="string">2014-10-10T19:01:44Z</DateUtc></FrequencyChange></FrequencyChanges></Clock>\n,v4_BCL_f2_d-7-1,60.001,1.0.0.229,1,-1519872893,2.0.10.242,2.0.10.242,10-10-2014,10/10/2014 7:01:44 PM,15:01:44,2.0.10.147,86,,,,,,32,1,32,,,,1,,,d,,0.255,,,9.19,,,31.18,,,,,,TrialProc1,,,,vowel 1,vowel 2,1,720,225152,Block2,d1_f0_9_19_f2_31_18_dur_0_255_num_160.wav,,,,
v4_BCL_f2_d,7,1,<?xml version="1.0"?>\n<Clock xmlns:dt="urn:schemas-microsoft-com:datatypes"><Description dt:dt="string">E-Prime Primary Realtime Clock</Description><StartTime><Timestamp dt:dt="int">0</Timestamp><DateUtc dt:dt="string">2014-10-10T19:01:44Z</DateUtc></StartTime><FrequencyChanges><FrequencyChange><Frequency dt:dt="r8">2327520000</Frequency><Timestamp dt:dt="r8">869903446559</Timestamp><Current dt:dt="r8">0</Current><DateUtc dt:dt="string">2014-10-10T19:01:44Z</DateUtc></FrequencyChange></FrequencyChanges></Clock>\n,v4_BCL_f2_d-7-1,60.001,1.0.0.229,1,-1519872893,2.0.10.242,2.0.10.242,10-10-2014,10/10/2014 7:01:44 PM,15:01:44,2.0.10.147,87,,,,,,33,1,33,,,,2,,,d,,0.244,,,10.08,,,28.57,,,,,,TrialProc1,,,,vowel 1,vowel 2,1,845,226810,Block2,d2_f0_10_08_f2_28_57_dur_0_244_num_427.wav,,,,
v4_BCL_f2_d,7,1,<?xml version="1.0"?>\n<Clock xmlns:dt="urn:schemas-microsoft-com:datatypes"><Description dt:dt="string">E-Prime Primary Realtime Clock</Description><StartTime><Timestamp dt:dt="int">0</Timestamp><DateUtc dt:dt="string">2014-10-10T19:01:44Z</DateUtc></StartTime><FrequencyChanges><FrequencyChange><Frequency dt:dt="r8">2327520000</Frequency><Timestamp dt:dt="r8">869903446559</Timestamp><Current dt:dt="r8">0</Current><DateUtc dt:dt="string">2014-10-10T19:01:44Z</DateUtc></FrequencyChange></FrequencyChanges></Clock>\n,v4_BCL_f2_d-7-1,60.001,1.0.0.229,1,-1519872893,2.0.10.242,2.0.10.242,10-10-2014,10/10/2014 7:01:44 PM,15:01:44,2.0.10.147,88,,,,,,34,1,34,,,,1,,,d,,0.247,,,9.97,,,30.68,,,,,,TrialProc1,,,,vowel 1,vowel 2,1,950,228565,Block2,d1_f0_9_97_f2_30_68_dur_0_247_num_119.wav,,,,
v4_BCL_f2_d,7,1,<?xml version="1.0"?>\n<Clock xmlns:dt="urn:schemas-microsoft-com:datatypes"><Description dt:dt="string">E-Prime Primary Realtime Clock</Description><StartTime><Timestamp dt:dt="int">0</Timestamp><DateUtc dt:dt="string">2014-10-10T19:01:44Z</DateUtc></StartTime><FrequencyChanges><FrequencyChange><Frequency dt:dt="r8">2327520000</Frequency><Timestamp dt:dt="r8">869903446559</Timestamp><Current dt:dt="r8">0</Current><DateUtc dt:dt="string">2014-10-10T19:01:44Z</DateUtc></FrequencyChange></FrequencyChanges></Clock>\n,v4_BCL_f2_d-7-1,60.001,1.0.0.229,1,-1519872893,2.0.10.242,2.0.10.242,10-10-2014,10/10/2014 7:01:44 PM,15:01:44,2.0.10.147,89,,,,,,35,1,35,,,,2,,,d,,0.253,,,8.51,,,30.09,,,,,,TrialProc1,,,,vowel 1,vowel 2,1,542,229907,Block2,d2_f0_8_51_f2_30_09_dur_0_253_num_447.wav,,,,
v4_BCL_f2_d,7,1,<?xml version="1.0"?>\n<Clock xmlns:dt="urn:schemas-microsoft-com:datatypes"><Description dt:dt="string">E-Prime Primary Realtime Clock</Description><StartTime><Timestamp dt:dt="int">0</Timestamp><DateUtc dt:dt="string">2014-10-10T19:01:44Z</DateUtc></StartTime><FrequencyChanges><FrequencyChange><Frequency dt:dt="r8">2327520000</Frequency><Timestamp dt:dt="r8">869903446559</Timestamp><Current dt:dt="r8">0</Current><DateUtc dt:dt="string">2014-10-10T19:01:44Z</DateUtc></FrequencyChange></FrequencyChanges></Clock>\n,v4_BCL_f2_d-7-1,60.001,1.0.0.229,1,-1519872893,2.0.10.242,2.0.10.242,10-10-2014,10/10/2014 7:01:44 PM,15:01:44,2.0.10.147,90,,,,,,36,1,36,,,,1,,,d,,0.25,,,9.41,,,30.43,,,,,,TrialProc1,,,,vowel 1,vowel 2,1,665,231380,Block2,d1_f0_9_41_f2_30_43_dur_0_250_num_172.wav,,,,
v4_BCL_f2_d,7,1,<?xml version="1.0"?>\n<Clock xmlns:dt="urn:schemas-microsoft-com:datatypes"><Description dt:dt="string">E-Prime Primary Realtime Clock</Description><StartTime><Timestamp dt:dt="int">0</Timestamp><DateUtc dt:dt="string">2014-10-10T19:01:44Z</DateUtc></StartTime><FrequencyChanges><FrequencyChange><Frequency dt:dt="r8">2327520000</Frequency><Timestamp dt:dt="r8">869903446559</Timestamp><Current dt:dt="r8">0</Current><DateUtc dt:dt="string">2014-10-10T19:01:44Z</DateUtc></FrequencyChange></FrequencyChanges></Clock>\n,v4_BCL_f2_d-7-1,60.001,1.0.0.229,1,-1519872893,2.0.10.242,2.0.10.242,10-10-2014,10/10/2014 7:01:44 PM,15:01:44,2.0.10.147,91,,,,,,37,1,37,,,,2,,,d,,0.251,,,8.77,,,29.3,,,,,,TrialProc1,,,,vowel 1,vowel 2,1,930,233111,Block2,d2_f0_8_77_f2_29_30_dur_0_251_num_411.wav,,,,
v4_BCL_f2_d,7,1,<?xml version="1.0"?>\n<Clock xmlns:dt="urn:schemas-microsoft-com:datatypes"><Description dt:dt="string">E-Prime Primary Realtime Clock</Description><StartTime><Timestamp dt:dt="int">0</Timestamp><DateUtc dt:dt="string">2014-10-10T19:01:44Z</DateUtc></StartTime><FrequencyChanges><FrequencyChange><Frequency dt:dt="r8">2327520000</Frequency><Timestamp dt:dt="r8">869903446559</Timestamp><Current dt:dt="r8">0</Current><DateUtc dt:dt="string">2014-10-10T19:01:44Z</DateUtc></FrequencyChange></FrequencyChanges></Clock>\n,v4_BCL_f2_d-7-1,60.001,1.0.0.229,1,-1519872893,2.0.10.242,2.0.10.242,10-10-2014,10/10/2014 7:01:44 PM,15:01:44,2.0.10.147,92,,,,,,38,1,38,,,,1,,,d,,0.253,,,10.13,,,29.68,,,,,,TrialProc1,,,,vowel 1,vowel 2,2,1035,234950,Block2,d1_f0_10_13_f2_29_68_dur_0_253_num_103.wav,,,,
v4_BCL_f2_d,7,1,<?xml version="1.0"?>\n<Clock xmlns:dt="urn:schemas-microsoft-com:datatypes"><Description dt:dt="string">E-Prime Primary Realtime Clock</Description><StartTime><Timestamp dt:dt="int">0</Timestamp><DateUtc dt:dt="string">2014-10-10T19:01:44Z</DateUtc></StartTime><FrequencyChanges><FrequencyChange><Frequency dt:dt="r8">2327520000</Frequency><Timestamp dt:dt="r8">869903446559</Timestamp><Current dt:dt="r8">0</Current><DateUtc dt:dt="string">2014-10-10T19:01:44Z</DateUtc></FrequencyChange></FrequencyChanges></Clock>\n,v4_BCL_f2_d-7-1,60.001,1.0.0.229,1,-1519872893,2.0.10.242,2.0.10.242,10-10-2014,10/10/2014 7:01:44 PM,15:01:44,2.0.10.147,93,,,,,,39,1,39,,,,2,,,d,,0.253,,,8.48,,,29.71,,,,,,TrialProc1,,,,vowel 1,vowel 2,1,651,236432,Block2,d2_f0_8_48_f2_29_71_dur_0_253_num_456.wav,,,,
v4_BCL_f2_d,7,1,<?xml version="1.0"?>\n<Clock xmlns:dt="urn:schemas-microsoft-com:datatypes"><Description dt:dt="string">E-Prime Primary Realtime Clock</Description><StartTime><Timestamp dt:dt="int">0</Timestamp><DateUtc dt:dt="string">2014-10-10T19:01:44Z</DateUtc></StartTime><FrequencyChanges><FrequencyChange><Frequency dt:dt="r8">2327520000</Frequency><Timestamp dt:dt="r8">869903446559</Timestamp><Current dt:dt="r8">0</Current><DateUtc dt:dt="string">2014-10-10T19:01:44Z</DateUtc></FrequencyChange></FrequencyChanges></Clock>\n,v4_BCL_f2_d-7-1,60.001,1.0.0.229,1,-1519872893,2.0.10.242,2.0.10.242,10-10-2014,10/10/2014 7:01:44 PM,15:01:44,2.0.10.147,94,,,,,,40,1,40,,,,2,,,d,,0.251,,,9.28,,,29.19,,,,,,TrialProc1,,,,vowel 1,vowel 2,2,309,237557,Block2,d2_f0_9_28_f2_29_19_dur_0_251_num_441.wav,,,,
v4_BCL_f2_d,7,1,<?xml version="1.0"?>\n<Clock xmlns:dt="urn:schemas-microsoft-com:datatypes"><Description dt:dt="string">E-Prime Primary Realtime Clock</Description><StartTime><Timestamp dt:dt="int">0</Timestamp><DateUtc dt:dt="string">2014-10-10T19:01:44Z</DateUtc></StartTime><FrequencyChanges><FrequencyChange><Frequency dt:dt="r8">2327520000</Frequency><Timestamp dt:dt="r8">869903446559</Timestamp><Current dt:dt="r8">0</Current><DateUtc dt:dt="string">2014-10-10T19:01:44Z</DateUtc></FrequencyChange></FrequencyChanges></Clock>\n,v4_BCL_f2_d-7-1,60.001,1.0.0.229,1,-1519872893,2.0.10.242,2.0.10.242,10-10-2014,10/10/2014 7:01:44 PM,15:01:44,2.0.10.147,95,,,,,,41,1,41,,,,1,,,d,,0.252,,,10,,,29.81,,,,,,TrialProc1,,,,vowel 1,vowel 2,1,112,238493,Block2,d1_f0_10_00_f2_29_81_dur_0_252_num_174.wav,,,,
v4_BCL_f2_d,7,1,<?xml version="1.0"?>\n<Clock xmlns:dt="urn:schemas-microsoft-com:datatypes"><Description dt:dt="string">E-Prime Primary Realtime Clock</Description><StartTime><Timestamp dt:dt="int">0</Timestamp><DateUtc dt:dt="string">2014-10-10T19:01:44Z</DateUtc></StartTime><FrequencyChanges><FrequencyChange><Frequency dt:dt="r8">2327520000</Frequency><Timestamp dt:dt="r8">869903446559</Timestamp><Current dt:dt="r8">0</Current><DateUtc dt:dt="string">2014-10-10T19:01:44Z</DateUtc></FrequencyChange></FrequencyChanges></Clock>\n,v4_BCL_f2_d-7-1,60.001,1.0.0.229,1,-1519872893,2.0.10.242,2.0.10.242,10-10-2014,10/10/2014 7:01:44 PM,15:01:44,2.0.10.147,96,,,,,,42,1,42,,,,2,,,d,,0.25,,,9,,,29.42,,,,,,TrialProc1,,,,vowel 1,vowel 2,1,926,240257,Block2,d2_f0_9_00_f2_29_42_dur_0_250_num_499.wav,,,,
v4_BCL_f2_d,7,1,<?xml version="1.0"?>\n<Clock xmlns:dt="urn:schemas-microsoft-com:datatypes"><Description dt:dt="string">E-Prime Primary Realtime Clock</Description><StartTime><Timestamp dt:dt="int">0</Timestamp><DateUtc dt:dt="string">2014-10-10T19:01:44Z</DateUtc></StartTime><FrequencyChanges><FrequencyChange><Frequency dt:dt="r8">2327520000</Frequency><Timestamp dt:dt="r8">869903446559</Timestamp><Current dt:dt="r8">0</Current><DateUtc dt:dt="string">2014-10-10T19:01:44Z</DateUtc></FrequencyChange></FrequencyChanges></Clock>\n,v4_BCL_f2_d-7-1,60.001,1.0.0.229,1,-1519872893,2.0.10.242,2.0.10.242,10-10-2014,10/10/2014 7:01:44 PM,15:01:44,2.0.10.147,97,,,,,,43,1,43,,,,1,,,d,,0.25,,,10.17,,,30.04,,,,,,TrialProc1,,,,vowel 1,vowel 2,2,508,241573,Block2,d1_f0_10_17_f2_30_04_dur_0_250_num_136.wav,,,,
v4_BCL_f2_d,7,1,<?xml version="1.0"?>\n<Clock xmlns:dt="urn:schemas-microsoft-com:datatypes"><Description dt:dt="string">E-Prime Primary Realtime Clock</Description><StartTime><Timestamp dt:dt="int">0</Timestamp><DateUtc dt:dt="string">2014-10-10T19:01:44Z</DateUtc></StartTime><FrequencyChanges><FrequencyChange><Frequency dt:dt="r8">2327520000</Frequency><Timestamp dt:dt="r8">869903446559</Timestamp><Current dt:dt="r8">0</Current><DateUtc dt:dt="string">2014-10-10T19:01:44Z</DateUtc></FrequencyChange></FrequencyChanges></Clock>\n,v4_BCL_f2_d-7-1,60.001,1.0.0.229,1,-1519872893,2.0.10.242,2.0.10.242,10-10-2014,10/10/2014 7:01:44 PM,15:01:44,2.0.10.147,98,,,,,,44,1,44,,,,1,,,d,,0.245,,,8.84,,,31.38,,,,,,TrialProc1,,,,vowel 1,vowel 2,1,226,242607,Block2,d1_f0_8_84_f2_31_38_dur_0_245_num_176.wav,,,,
v4_BCL_f2_d,7,1,<?xml version="1.0"?>\n<Clock xmlns:dt="urn:schemas-microsoft-com:datatypes"><Description dt:dt="string">E-Prime Primary Realtime Clock</Description><StartTime><Timestamp dt:dt="int">0</Timestamp><DateUtc dt:dt="string">2014-10-10T19:01:44Z</DateUtc></StartTime><FrequencyChanges><FrequencyChange><Frequency dt:dt="r8">2327520000</Frequency><Timestamp dt:dt="r8">869903446559</Timestamp><Current dt:dt="r8">0</Current><DateUtc dt:dt="string">2014-10-10T19:01:44Z</DateUtc></FrequencyChange></FrequencyChanges></Clock>\n,v4_BCL_f2_d-7-1,60.001,1.0.0.229,1,-1519872893,2.0.10.242,2.0.10.242,10-10-2014,10/10/2014 7:01:44 PM,15:01:44,2.0.10.147,99,,,,,,45,1,45,,,,1,,,d,,0.248,,,8.54,,,31.43,,,,,,TrialProc1,,,,vowel 1,vowel 2,2,472,243887,Block2,d1_f0_8_54_f2_31_43_dur_0_248_num_193.wav,,,,
v4_BCL_f2_d,7,1,<?xml version="1.0"?>\n<Clock xmlns:dt="urn:schemas-microsoft-com:datatypes"><Description dt:dt="string">E-Prime Primary Realtime Clock</Description><StartTime><Timestamp dt:dt="int">0</Timestamp><DateUtc dt:dt="string">2014-10-10T19:01:44Z</DateUtc></StartTime><FrequencyChanges><FrequencyChange><Frequency dt:dt="r8">2327520000</Frequency><Timestamp dt:dt="r8">869903446559</Timestamp><Current dt:dt="r8">0</Current><DateUtc dt:dt="string">2014-10-10T19:01:44Z</DateUtc></FrequencyChange></FrequencyChanges></Clock>\n,v4_BCL_f2_d-7-1,60.001,1.0.0.229,1,-1519872893,2.0.10.242,2.0.10.242,10-10-2014,10/10/2014 7:01:44 PM,15:01:44,2.0.10.147,100,,,,,,46,1,46,,,,2,,,d,,0.251,,,8.5,,,29.68,,,,,,TrialProc1,,,,vowel 1,vowel 2,1,634,245332,Block2,d2_f0_8_50_f2_29_68_dur_0_251_num_444.wav,,,,
v4_BCL_f2_d,7,1,<?xml version="1.0"?>\n<Clock xmlns:dt="urn:schemas-microsoft-com:datatypes"><Description dt:dt="string">E-Prime Primary Realtime Clock</Description><StartTime><Timestamp dt:dt="int">0</Timestamp><DateUtc dt:dt="string">2014-10-10T19:01:44Z</DateUtc></StartTime><FrequencyChanges><FrequencyChange><Frequency dt:dt="r8">2327520000</Frequency><Timestamp dt:dt="r8">869903446559</Timestamp><Current dt:dt="r8">0</Current><DateUtc dt:dt="string">2014-10-10T19:01:44Z</DateUtc></FrequencyChange></FrequencyChanges></Clock>\n,v4_BCL_f2_d-7-1,60.001,1.0.0.229,1,-1519872893,2.0.10.242,2.0.10.242,10-10-2014,10/10/2014 7:01:44 PM,15:01:44,2.0.10.147,101,,,,,,47,1,47,,,,1,,,d,,0.251,,,9.87,,,30.08,,,,,,TrialProc1,,,,vowel 1,vowel 2,1,498,246646,Block2,d1_f0_9_87_f2_30_08_dur_0_251_num_144.wav,,,,
v4_BCL_f2_d,7,1,<?xml version="1.0"?>\n<Clock xmlns:dt="urn:schemas-microsoft-com:datatypes"><Description dt:dt="string">E-Prime Primary Realtime Clock</Description><StartTime><Timestamp dt:dt="int">0</Timestamp><DateUtc dt:dt="string">2014-10-10T19:01:44Z</DateUtc></StartTime><FrequencyChanges><FrequencyChange><Frequency dt:dt="r8">2327520000</Frequency><Timestamp dt:dt="r8">869903446559</Timestamp><Current dt:dt="r8">0</Current><DateUtc dt:dt="string">2014-10-10T19:01:44Z</DateUtc></FrequencyChange></FrequencyChanges></Clock>\n,v4_BCL_f2_d-7-1,60.001,1.0.0.229,1,-1519872893,2.0.10.242,2.0.10.242,10-10-2014,10/10/2014 7:01:44 PM,15:01:44,2.0.10.147,102,,,,,,48,1,48,,,,1,,,d,,0.25,,,10.43,,,29.46,,,,,,TrialProc1,,,,vowel 1,vowel 2,2,609,248057,Block2,d1_f0_10_43_f2_29_46_dur_0_250_num_180.wav,,,,
v4_BCL_f2_d,7,1,<?xml version="1.0"?>\n<Clock xmlns:dt="urn:schemas-microsoft-com:datatypes"><Description dt:dt="string">E-Prime Primary Realtime Clock</Description><StartTime><Timestamp dt:dt="int">0</Timestamp><DateUtc dt:dt="string">2014-10-10T19:01:44Z</DateUtc></StartTime><FrequencyChanges><FrequencyChange><Frequency dt:dt="r8">2327520000</Frequency><Timestamp dt:dt="r8">869903446559</Timestamp><Current dt:dt="r8">0</Current><DateUtc dt:dt="string">2014-10-10T19:01:44Z</DateUtc></FrequencyChange></FrequencyChanges></Clock>\n,v4_BCL_f2_d-7-1,60.001,1.0.0.229,1,-1519872893,2.0.10.242,2.0.10.242,10-10-2014,10/10/2014 7:01:44 PM,15:01:44,2.0.10.147,103,,,,,,49,1,49,,,,1,,,d,,0.248,,,10.11,,,30.41,,,,,,TrialProc1,,,,vowel 1,vowel 2,1,416,249297,Block2,d1_f0_10_11_f2_30_41_dur_0_248_num_127.wav,,,,
v4_BCL_f2_d,7,1,<?xml version="1.0"?>\n<Clock xmlns:dt="urn:schemas-microsoft-com:datatypes"><Description dt:dt="string">E-Prime Primary Realtime Clock</Description><StartTime><Timestamp dt:dt="int">0</Timestamp><DateUtc dt:dt="string">2014-10-10T19:01:44Z</DateUtc></StartTime><FrequencyChanges><FrequencyChange><Frequency dt:dt="r8">2327520000</Frequency><Timestamp dt:dt="r8">869903446559</Timestamp><Current dt:dt="r8">0</Current><DateUtc dt:dt="string">2014-10-10T19:01:44Z</DateUtc></FrequencyChange></FrequencyChanges></Clock>\n,v4_BCL_f2_d-7-1,60.001,1.0.0.229,1,-1519872893,2.0.10.242,2.0.10.242,10-10-2014,10/10/2014 7:01:44 PM,15:01:44,2.0.10.147,104,,,,,,50,1,50,,,,1,,,d,,0.252,,,9.51,,,30.34,,,,,,TrialProc1,,,,vowel 1,vowel 2,2,579,250694,Block2,d1_f0_9_51_f2_30_34_dur_0_252_num_175.wav,,,,
v4_BCL_f2_d,7,1,<?xml version="1.0"?>\n<Clock xmlns:dt="urn:schemas-microsoft-com:datatypes"><Description dt:dt="string">E-Prime Primary Realtime Clock</Description><StartTime><Timestamp dt:dt="int">0</Timestamp><DateUtc dt:dt="string">2014-10-10T19:01:44Z</DateUtc></StartTime><FrequencyChanges><FrequencyChange><Frequency dt:dt="r8">2327520000</Frequency><Timestamp dt:dt="r8">869903446559</Timestamp><Current dt:dt="r8">0</Current><DateUtc dt:dt="string">2014-10-10T19:01:44Z</DateUtc></FrequencyChange></FrequencyChanges></Clock>\n,v4_BCL_f2_d-7-1,60.001,1.0.0.229,1,-1519872893,2.0.10.242,2.0.10.242,10-10-2014,10/10/2014 7:01:44 PM,15:01:44,2.0.10.147,105,,,,,,51,1,51,,,,2,,,d,,0.248,,,9.42,,,28.54,,,,,,TrialProc1,,,,vowel 1,vowel 2,1,562,252060,Block2,d2_f0_9_42_f2_28_54_dur_0_248_num_422.wav,,,,
v4_BCL_f2_d,7,1,<?xml version="1.0"?>\n<Clock xmlns:dt="urn:schemas-microsoft-com:datatypes"><Description dt:dt="string">E-Prime Primary Realtime Clock</Description><StartTime><Timestamp dt:dt="int">0</Timestamp><DateUtc dt:dt="string">2014-10-10T19:01:44Z</DateUtc></StartTime><FrequencyChanges><FrequencyChange><Frequency dt:dt="r8">2327520000</Frequency><Timestamp dt:dt="r8">869903446559</Timestamp><Current dt:dt="r8">0</Current><DateUtc dt:dt="string">2014-10-10T19:01:44Z</DateUtc></FrequencyChange></FrequencyChanges></Clock>\n,v4_BCL_f2_d-7-1,60.001,1.0.0.229,1,-1519872893,2.0.10.242,2.0.10.242,10-10-2014,10/10/2014 7:01:44 PM,15:01:44,2.0.10.147,106,,,,,,52,1,52,,,,1,,,d,,0.253,,,10.54,,,30.06,,,,,,TrialProc1,,,,vowel 1,vowel 2,2,964,253845,Block2,d1_f0_10_54_f2_30_06_dur_0_253_num_163.wav,,,,
v4_BCL_f2_d,7,1,<?xml version="1.0"?>\n<Clock xmlns:dt="urn:schemas-microsoft-com:datatypes"><Description dt:dt="string">E-Prime Primary Realtime Clock</Description><StartTime><Timestamp dt:dt="int">0</Timestamp><DateUtc dt:dt="string">2014-10-10T19:01:44Z</DateUtc></StartTime><FrequencyChanges><FrequencyChange><Frequency dt:dt="r8">2327520000</Frequency><Timestamp dt:dt="r8">869903446559</Timestamp><Current dt:dt="r8">0</Current><DateUtc dt:dt="string">2014-10-10T19:01:44Z</DateUtc></FrequencyChange></FrequencyChanges></Clock>\n,v4_BCL_f2_d-7-1,60.001,1.0.0.229,1,-1519872893,2.0.10.242,2.0.10.242,10-10-2014,10/10/2014 7:01:44 PM,15:01:44,2.0.10.147,107,,,,,,53,1,53,,,,1,,,d,,0.25,,,9.29,,,31.05,,,,,,TrialProc1,,,,vowel 1,vowel 2,1,675,255339,Block2,d1_f0_9_29_f2_31_05_dur_0_250_num_195.wav,,,,
v4_BCL_f2_d,7,1,<?xml version="1.0"?>\n<Clock xmlns:dt="urn:schemas-microsoft-com:datatypes"><Description dt:dt="string">E-Prime Primary Realtime Clock</Description><StartTime><Timestamp dt:dt="int">0</Timestamp><DateUtc dt:dt="string">2014-10-10T19:01:44Z</DateUtc></StartTime><FrequencyChanges><FrequencyChange><Frequency dt:dt="r8">2327520000</Frequency><Timestamp dt:dt="r8">869903446559</Timestamp><Current dt:dt="r8">0</Current><DateUtc dt:dt="string">2014-10-10T19:01:44Z</DateUtc></FrequencyChange></FrequencyChanges></Clock>\n,v4_BCL_f2_d-7-1,60.001,1.0.0.229,1,-1519872893,2.0.10.242,2.0.10.242,10-10-2014,10/10/2014 7:01:44 PM,15:01:44,2.0.10.147,108,,,,,,54,1,54,,,,1,,,d,,0.251,,,8.73,,,31.57,,,,,,TrialProc1,,,,vowel 1,vowel 2,1,672,256820,Block2,d1_f0_8_73_f2_31_57_dur_0_251_num_164.wav,,,,
v4_BCL_f2_d,7,1,<?xml version="1.0"?>\n<Clock xmlns:dt="urn:schemas-microsoft-com:datatypes"><Description dt:dt="string">E-Prime Primary Realtime Clock</Description><StartTime><Timestamp dt:dt="int">0</Timestamp><DateUtc dt:dt="string">2014-10-10T19:01:44Z</DateUtc></StartTime><FrequencyChanges><FrequencyChange><Frequency dt:dt="r8">2327520000</Frequency><Timestamp dt:dt="r8">869903446559</Timestamp><Current dt:dt="r8">0</Current><DateUtc dt:dt="string">2014-10-10T19:01:44Z</DateUtc></FrequencyChange></FrequencyChanges></Clock>\n,v4_BCL_f2_d-7-1,60.001,1.0.0.229,1,-1519872893,2.0.10.242,2.0.10.242,10-10-2014,10/10/2014 7:01:44 PM,15:01:44,2.0.10.147,109,,,,,,55,1,55,,,,1,,,d,,0.249,,,9.99,,,30.64,,,,,,TrialProc1,,,,vowel 1,vowel 2,2,987,258618,Block2,d1_f0_9_99_f2_30_64_dur_0_249_num_134.wav,,,,
v4_BCL_f2_d,7,1,<?xml version="1.0"?>\n<Clock xmlns:dt="urn:schemas-microsoft-com:datatypes"><Description dt:dt="string">E-Prime Primary Realtime Clock</Description><StartTime><Timestamp dt:dt="int">0</Timestamp><DateUtc dt:dt="string">2014-10-10T19:01:44Z</DateUtc></StartTime><FrequencyChanges><FrequencyChange><Frequency dt:dt="r8">2327520000</Frequency><Timestamp dt:dt="r8">869903446559</Timestamp><Current dt:dt="r8">0</Current><DateUtc dt:dt="string">2014-10-10T19:01:44Z</DateUtc></FrequencyChange></FrequencyChanges></Clock>\n,v4_BCL_f2_d-7-1,60.001,1.0.0.229,1,-1519872893,2.0.10.242,2.0.10.242,10-10-2014,10/10/2014 7:01:44 PM,15:01:44,2.0.10.147,110,,,,,,56,1,56,,,,1,,,d,,0.246,,,8.79,,,31.27,,,,,,TrialProc1,,,,vowel 1,vowel 2,1,704,260135,Block2,d1_f0_8_79_f2_31_27_dur_0_246_num_146.wav,,,,
v4_BCL_f2_d,7,1,<?xml version="1.0"?>\n<Clock xmlns:dt="urn:schemas-microsoft-com:datatypes"><Description dt:dt="string">E-Prime Primary Realtime Clock</Description><StartTime><Timestamp dt:dt="int">0</Timestamp><DateUtc dt:dt="string">2014-10-10T19:01:44Z</DateUtc></StartTime><FrequencyChanges><FrequencyChange><Frequency dt:dt="r8">2327520000</Frequency><Timestamp dt:dt="r8">869903446559</Timestamp><Current dt:dt="r8">0</Current><DateUtc dt:dt="string">2014-10-10T19:01:44Z</DateUtc></FrequencyChange></FrequencyChanges></Clock>\n,v4_BCL_f2_d-7-1,60.001,1.0.0.229,1,-1519872893,2.0.10.242,2.0.10.242,10-10-2014,10/10/2014 7:01:44 PM,15:01:44,2.0.10.147,111,,,,,,57,1,57,,,,2,,,d,,0.251,,,8.63,,,29.05,,,,,,TrialProc1,,,,vowel 1,vowel 2,2,630,261578,Block2,d2_f0_8_63_f2_29_05_dur_0_251_num_479.wav,,,,
v4_BCL_f2_d,7,1,<?xml version="1.0"?>\n<Clock xmlns:dt="urn:schemas-microsoft-com:datatypes"><Description dt:dt="string">E-Prime Primary Realtime Clock</Description><StartTime><Timestamp dt:dt="int">0</Timestamp><DateUtc dt:dt="string">2014-10-10T19:01:44Z</DateUtc></StartTime><FrequencyChanges><FrequencyChange><Frequency dt:dt="r8">2327520000</Frequency><Timestamp dt:dt="r8">869903446559</Timestamp><Current dt:dt="r8">0</Current><DateUtc dt:dt="string">2014-10-10T19:01:44Z</DateUtc></FrequencyChange></FrequencyChanges></Clock>\n,v4_BCL_f2_d-7-1,60.001,1.0.0.229,1,-1519872893,2.0.10.242,2.0.10.242,10-10-2014,10/10/2014 7:01:44 PM,15:01:44,2.0.10.147,112,,,,,,58,1,58,,,,1,,,d,,0.252,,,9.53,,,31.01,,,,,,TrialProc1,,,,vowel 1,vowel 2,1,632,263030,Block2,d1_f0_9_53_f2_31_01_dur_0_252_num_171.wav,,,,
v4_BCL_f2_d,7,1,<?xml version="1.0"?>\n<Clock xmlns:dt="urn:schemas-microsoft-com:datatypes"><Description dt:dt="string">E-Prime Primary Realtime Clock</Description><StartTime><Timestamp dt:dt="int">0</Timestamp><DateUtc dt:dt="string">2014-10-10T19:01:44Z</DateUtc></StartTime><FrequencyChanges><FrequencyChange><Frequency dt:dt="r8">2327520000</Frequency><Timestamp dt:dt="r8">869903446559</Timestamp><Current dt:dt="r8">0</Current><DateUtc dt:dt="string">2014-10-10T19:01:44Z</DateUtc></FrequencyChange></FrequencyChanges></Clock>\n,v4_BCL_f2_d-7-1,60.001,1.0.0.229,1,-1519872893,2.0.10.242,2.0.10.242,10-10-2014,10/10/2014 7:01:44 PM,15:01:44,2.0.10.147,113,,,,,,59,1,59,,,,2,,,d,,0.251,,,9.73,,,28.76,,,,,,TrialProc1,,,,vowel 1,vowel 2,2,614,264462,Block2,d2_f0_9_73_f2_28_76_dur_0_251_num_465.wav,,,,
v4_BCL_f2_d,7,1,<?xml version="1.0"?>\n<Clock xmlns:dt="urn:schemas-microsoft-com:datatypes"><Description dt:dt="string">E-Prime Primary Realtime Clock</Description><StartTime><Timestamp dt:dt="int">0</Timestamp><DateUtc dt:dt="string">2014-10-10T19:01:44Z</DateUtc></StartTime><FrequencyChanges><FrequencyChange><Frequency dt:dt="r8">2327520000</Frequency><Timestamp dt:dt="r8">869903446559</Timestamp><Current dt:dt="r8">0</Current><DateUtc dt:dt="string">2014-10-10T19:01:44Z</DateUtc></FrequencyChange></FrequencyChanges></Clock>\n,v4_BCL_f2_d-7-1,60.001,1.0.0.229,1,-1519872893,2.0.10.242,2.0.10.242,10-10-2014,10/10/2014 7:01:44 PM,15:01:44,2.0.10.147,114,,,,,,60,1,60,,,,2,,,d,,0.253,,,8.48,,,28.99,,,,,,TrialProc1,,,,vowel 1,vowel 2,2,827,266108,Block2,d2_f0_8_48_f2_28_99_dur_0_253_num_425.wav,,,,
v4_BCL_f2_d,7,1,<?xml version="1.0"?>\n<Clock xmlns:dt="urn:schemas-microsoft-com:datatypes"><Description dt:dt="string">E-Prime Primary Realtime Clock</Description><StartTime><Timestamp dt:dt="int">0</Timestamp><DateUtc dt:dt="string">2014-10-10T19:01:44Z</DateUtc></StartTime><FrequencyChanges><FrequencyChange><Frequency dt:dt="r8">2327520000</Frequency><Timestamp dt:dt="r8">869903446559</Timestamp><Current dt:dt="r8">0</Current><DateUtc dt:dt="string">2014-10-10T19:01:44Z</DateUtc></FrequencyChange></FrequencyChanges></Clock>\n,v4_BCL_f2_d-7-1,60.001,1.0.0.229,1,-1519872893,2.0.10.242,2.0.10.242,10-10-2014,10/10/2014 7:01:44 PM,15:01:44,2.0.10.147,115,,,,,,61,1,61,,,,1,,,d,,0.246,,,9.77,,,31.41,,,,,,TrialProc1,,,,vowel 1,vowel 2,2,596,267510,Block2,d1_f0_9_77_f2_31_41_dur_0_246_num_109.wav,,,,
v4_BCL_f2_d,7,1,<?xml version="1.0"?>\n<Clock xmlns:dt="urn:schemas-microsoft-com:datatypes"><Description dt:dt="string">E-Prime Primary Realtime Clock</Description><StartTime><Timestamp dt:dt="int">0</Timestamp><DateUtc dt:dt="string">2014-10-10T19:01:44Z</DateUtc></StartTime><FrequencyChanges><FrequencyChange><Frequency dt:dt="r8">2327520000</Frequency><Timestamp dt:dt="r8">869903446559</Timestamp><Current dt:dt="r8">0</Current><DateUtc dt:dt="string">2014-10-10T19:01:44Z</DateUtc></FrequencyChange></FrequencyChanges></Clock>\n,v4_BCL_f2_d-7-1,60.001,1.0.0.229,1,-1519872893,2.0.10.242,2.0.10.242,10-10-2014,10/10/2014 7:01:44 PM,15:01:44,2.0.10.147,116,,,,,,62,1,62,,,,2,,,d,,0.248,,,8.76,,,29.42,,,,,,TrialProc1,,,,vowel 1,vowel 2,2,537,268868,Block2,d2_f0_8_76_f2_29_42_dur_0_248_num_497.wav,,,,
v4_BCL_f2_d,7,1,<?xml version="1.0"?>\n<Clock xmlns:dt="urn:schemas-microsoft-com:datatypes"><Description dt:dt="string">E-Prime Primary Realtime Clock</Description><StartTime><Timestamp dt:dt="int">0</Timestamp><DateUtc dt:dt="string">2014-10-10T19:01:44Z</DateUtc></StartTime><FrequencyChanges><FrequencyChange><Frequency dt:dt="r8">2327520000</Frequency><Timestamp dt:dt="r8">869903446559</Timestamp><Current dt:dt="r8">0</Current><DateUtc dt:dt="string">2014-10-10T19:01:44Z</DateUtc></FrequencyChange></FrequencyChanges></Clock>\n,v4_BCL_f2_d-7-1,60.001,1.0.0.229,1,-1519872893,2.0.10.242,2.0.10.242,10-10-2014,10/10/2014 7:01:44 PM,15:01:44,2.0.10.147,117,,,,,,63,1,63,,,,1,,,d,,0.25,,,8.52,,,31.79,,,,,,TrialProc1,,,,vowel 1,vowel 2,2,373,270054,Block2,d1_f0_8_52_f2_31_79_dur_0_250_num_199.wav,,,,
v4_BCL_f2_d,7,1,<?xml version="1.0"?>\n<Clock xmlns:dt="urn:schemas-microsoft-com:datatypes"><Description dt:dt="string">E-Prime Primary Realtime Clock</Description><StartTime><Timestamp dt:dt="int">0</Timestamp><DateUtc dt:dt="string">2014-10-10T19:01:44Z</DateUtc></StartTime><FrequencyChanges><FrequencyChange><Frequency dt:dt="r8">2327520000</Frequency><Timestamp dt:dt="r8">869903446559</Timestamp><Current dt:dt="r8">0</Current><DateUtc dt:dt="string">2014-10-10T19:01:44Z</DateUtc></FrequencyChange></FrequencyChanges></Clock>\n,v4_BCL_f2_d-7-1,60.001,1.0.0.229,1,-1519872893,2.0.10.242,2.0.10.242,10-10-2014,10/10/2014 7:01:44 PM,15:01:44,2.0.10.147,118,,,,,,64,1,64,,,,2,,,d,,0.25,,,9.14,,,28.74,,,,,,TrialProc1,,,,vowel 1,vowel 2,1,587,271451,Block2,d2_f0_9_14_f2_28_74_dur_0_250_num_421.wav,,,,
v4_BCL_f2_d,7,1,<?xml version="1.0"?>\n<Clock xmlns:dt="urn:schemas-microsoft-com:datatypes"><Description dt:dt="string">E-Prime Primary Realtime Clock</Description><StartTime><Timestamp dt:dt="int">0</Timestamp><DateUtc dt:dt="string">2014-10-10T19:01:44Z</DateUtc></StartTime><FrequencyChanges><FrequencyChange><Frequency dt:dt="r8">2327520000</Frequency><Timestamp dt:dt="r8">869903446559</Timestamp><Current dt:dt="r8">0</Current><DateUtc dt:dt="string">2014-10-10T19:01:44Z</DateUtc></FrequencyChange></FrequencyChanges></Clock>\n,v4_BCL_f2_d-7-1,60.001,1.0.0.229,1,-1519872893,2.0.10.242,2.0.10.242,10-10-2014,10/10/2014 7:01:44 PM,15:01:44,2.0.10.147,119,,,,,,65,1,65,,,,2,,,d,,0.249,,,9.53,,,28.58,,,,,,TrialProc1,,,,vowel 1,vowel 2,1,717,272981,Block2,d2_f0_9_53_f2_28_58_dur_0_249_num_420.wav,,,,
v4_BCL_f2_d,7,1,<?xml version="1.0"?>\n<Clock xmlns:dt="urn:schemas-microsoft-com:datatypes"><Description dt:dt="string">E-Prime Primary Realtime Clock</Description><StartTime><Timestamp dt:dt="int">0</Timestamp><DateUtc dt:dt="string">2014-10-10T19:01:44Z</DateUtc></StartTime><FrequencyChanges><FrequencyChange><Frequency dt:dt="r8">2327520000</Frequency><Timestamp dt:dt="r8">869903446559</Timestamp><Current dt:dt="r8">0</Current><DateUtc dt:dt="string">2014-10-10T19:01:44Z</DateUtc></FrequencyChange></FrequencyChanges></Clock>\n,v4_BCL_f2_d-7-1,60.001,1.0.0.229,1,-1519872893,2.0.10.242,2.0.10.242,10-10-2014,10/10/2014 7:01:44 PM,15:01:44,2.0.10.147,120,,,,,,66,1,66,,,,2,,,d,,0.248,,,8.99,,,29.39,,,,,,TrialProc1,,,,vowel 1,vowel 2,1,1135,274933,Block2,d2_f0_8_99_f2_29_39_dur_0_248_num_402.wav,,,,
v4_BCL_f2_d,7,1,<?xml version="1.0"?>\n<Clock xmlns:dt="urn:schemas-microsoft-com:datatypes"><Description dt:dt="string">E-Prime Primary Realtime Clock</Description><StartTime><Timestamp dt:dt="int">0</Timestamp><DateUtc dt:dt="string">2014-10-10T19:01:44Z</DateUtc></StartTime><FrequencyChanges><FrequencyChange><Frequency dt:dt="r8">2327520000</Frequency><Timestamp dt:dt="r8">869903446559</Timestamp><Current dt:dt="r8">0</Current><DateUtc dt:dt="string">2014-10-10T19:01:44Z</DateUtc></FrequencyChange></FrequencyChanges></Clock>\n,v4_BCL_f2_d-7-1,60.001,1.0.0.229,1,-1519872893,2.0.10.242,2.0.10.242,10-10-2014,10/10/2014 7:01:44 PM,15:01:44,2.0.10.147,121,,,,,,67,1,67,,,,2,,,d,,0.252,,,8.77,,,29.16,,,,,,TrialProc1,,,,vowel 1,vowel 2,1,1096,276860,Block2,d2_f0_8_77_f2_29_16_dur_0_252_num_436.wav,,,,
v4_BCL_f2_d,7,1,<?xml version="1.0"?>\n<Clock xmlns:dt="urn:schemas-microsoft-com:datatypes"><Description dt:dt="string">E-Prime Primary Realtime Clock</Description><StartTime><Timestamp dt:dt="int">0</Timestamp><DateUtc dt:dt="string">2014-10-10T19:01:44Z</DateUtc></StartTime><FrequencyChanges><FrequencyChange><Frequency dt:dt="r8">2327520000</Frequency><Timestamp dt:dt="r8">869903446559</Timestamp><Current dt:dt="r8">0</Current><DateUtc dt:dt="string">2014-10-10T19:01:44Z</DateUtc></FrequencyChange></FrequencyChanges></Clock>\n,v4_BCL_f2_d-7-1,60.001,1.0.0.229,1,-1519872893,2.0.10.242,2.0.10.242,10-10-2014,10/10/2014 7:01:44 PM,15:01:44,2.0.10.147,122,,,,,,68,1,68,,,,1,,,d,,0.25,,,9.21,,,31.21,,,,,,TrialProc1,,,,vowel 1,vowel 2,1,859,278540,Block2,d1_f0_9_21_f2_31_21_dur_0_250_num_165.wav,,,,
v4_BCL_f2_d,7,1,<?xml version="1.0"?>\n<Clock xmlns:dt="urn:schemas-microsoft-com:datatypes"><Description dt:dt="string">E-Prime Primary Realtime Clock</Description><StartTime><Timestamp dt:dt="int">0</Timestamp><DateUtc dt:dt="string">2014-10-10T19:01:44Z</DateUtc></StartTime><FrequencyChanges><FrequencyChange><Frequency dt:dt="r8">2327520000</Frequency><Timestamp dt:dt="r8">869903446559</Timestamp><Current dt:dt="r8">0</Current><DateUtc dt:dt="string">2014-10-10T19:01:44Z</DateUtc></FrequencyChange></FrequencyChanges></Clock>\n,v4_BCL_f2_d-7-1,60.001,1.0.0.229,1,-1519872893,2.0.10.242,2.0.10.242,10-10-2014,10/10/2014 7:01:44 PM,15:01:44,2.0.10.147,123,,,,,,69,1,69,,,,2,,,d,,0.255,,,8.66,,,29.54,,,,,,TrialProc1,,,,vowel 1,vowel 2,2,508,279855,Block2,d2_f0_8_66_f2_29_54_dur_0_255_num_460.wav,,,,
v4_BCL_f2_d,7,1,<?xml version="1.0"?>\n<Clock xmlns:dt="urn:schemas-microsoft-com:datatypes"><Description dt:dt="string">E-Prime Primary Realtime Clock</Description><StartTime><Timestamp dt:dt="int">0</Timestamp><DateUtc dt:dt="string">2014-10-10T19:01:44Z</DateUtc></StartTime><FrequencyChanges><FrequencyChange><Frequency dt:dt="r8">2327520000</Frequency><Timestamp dt:dt="r8">869903446559</Timestamp><Current dt:dt="r8">0</Current><DateUtc dt:dt="string">2014-10-10T19:01:44Z</DateUtc></FrequencyChange></FrequencyChanges></Clock>\n,v4_BCL_f2_d-7-1,60.001,1.0.0.229,1,-1519872893,2.0.10.242,2.0.10.242,10-10-2014,10/10/2014 7:01:44 PM,15:01:44,2.0.10.147,124,,,,,,70,1,70,,,,2,,,d,,0.247,,,10.42,,,28.58,,,,,,TrialProc1,,,,vowel 1,vowel 2,1,1005,281669,Block2,d2_f0_10_42_f2_28_58_dur_0_247_num_405.wav,,,,
