ExperimentName,Subject,Session,Clock.Information,DataFile.Basename,Display.RefreshRate,ExperimentVersion,Group,RandomSeed,RuntimeVersion,RuntimeVersionExpected,SessionDate,SessionStartDateTimeUtc,SessionTime,StudioVersion,Block,A,B,Block1,Block1.Cycle,Block1.Sample,Block2,Block2.Cycle,Block2.Sample,Block3,Block3.Cycle,Block3.Sample,cat,catA,catB,cons,correct_resp,dur,durA,durB,f0,f0A,f0B,f2,f2A,f2B,PracticeList,PracticeList.Cycle,PracticeList.Sample,Procedure,resp.CRESP,resp.RESP,resp.RT,resp1,resp2,respond.RESP,respond.RT,respond.RTTime,Running,soundfile,testList,testList.Cycle,testList.Sample,X
v4_BCL_f2,8,1,<?xml version="1.0"?>\n<Clock xmlns:dt="urn:schemas-microsoft-com:datatypes"><Description dt:dt="string">E-Prime Primary Realtime Clock</Description><StartTime><Timestamp dt:dt="int">0</Timestamp><DateUtc dt:dt="string">2014-11-10T21:47:23Z</DateUtc></StartTime><FrequencyChanges><FrequencyChange><Frequency dt:dt="r8">2327510000</Frequency><Timestamp dt:dt="r8">8533084966651</Timestamp><Current dt:dt="r8">0</Current><DateUtc dt:dt="string">2014-11-10T21:47:23Z</DateUtc></FrequencyChange></FrequencyChanges></Clock>\n,v4_BCL_f2-8-1,60.001,1.0.0.226,1,-552327835,2.0.10.242,2.0.10.242,11-10-2014,11/10/2014 9:47:23 PM,16:47:23,2.0.10.147,1,,,,,,,,,,,,NA,,,NA,,NA,,,NA,,,NA,,,5,1,1,PracProc,,,,vowel 1,vowel 2,,0,0,PracticeList,see.wav,,,,
v4_BCL_f2,8,1,<?xml version="1.0"?>\n<Clock xmlns:dt="urn:schemas-microsoft-com:datatypes"><Description dt:dt="string">E-Prime Primary Realtime Clock</Description><StartTime><Timestamp dt:dt="int">0</Timestamp><DateUtc dt:dt="string">2014-11-10T21:47:23Z</DateUtc></StartTime><FrequencyChanges><FrequencyChange><Frequency dt:dt="r8">2327510000</Frequency><Timestamp dt:dt="r8">8533084966651</Timestamp><Current dt:dt="r8">0</Current><DateUtc dt:dt="string">2014-11-10T21:47:23Z</DateUtc></FrequencyChange></FrequencyChanges></Clock>\n,v4_BCL_f2-8-1,60.001,1.0.0.226,1,-552327835,2.0.10.242,2.0.10.242,11-10-2014,11/10/2014 9:47:23 PM,16:47:23,2.0.10.147,2,,,,,,,,,,,,NA,,,NA,,NA,,,NA,,,NA,,,4,1,2,PracProc,,,,vowel 1,vowel 2,,0,0,PracticeList,tay.wav,,,,
v4_BCL_f2,8,1,<?xml version="1.0"?>\n<Clock xmlns:dt="urn:schemas-microsoft-com:datatypes"><Description dt:dt="string">E-Prime Primary Realtime Clock</Description><StartTime><Timestamp dt:dt="int">0</Timestamp><DateUtc dt:dt="string">2014-11-10T21:47:23Z</DateUtc></StartTime><FrequencyChanges><FrequencyChange><Frequency dt:dt="r8">2327510000</Frequency><Timestamp dt:dt="r8">8533084966651</Timestamp><Current dt:dt="r8">0</Current><DateUtc dt:dt="string">2014-11-10T21:47:23Z</DateUtc></FrequencyChange></FrequencyChanges></Clock>\n,v4_BCL_f2-8-1,60.001,1.0.0.226,1,-552327835,2.0.10.242,2.0.10.242,11-10-2014,11/10/2014 9:47:23 PM,16:47:23,2.0.10.147,3,,,,,,,,,,,,NA,,,NA,,NA,,,NA,,,NA,,,2,1,3,PracProc,,,,vowel 1,vowel 2,,0,0,PracticeList,kay.wav,,,,
v4_BCL_f2,8,1,<?xml version="1.0"?>\n<Clock xmlns:dt="urn:schemas-microsoft-com:datatypes"><Description dt:dt="string">E-Prime Primary Realtime Clock</Description><StartTime><Timestamp dt:dt="int">0</Timestamp><DateUtc dt:dt="string">2014-11-10T21:47:23Z</DateUtc></StartTime><FrequencyChanges><FrequencyChange><Frequency dt:dt="r8">2327510000</Frequency><Timestamp dt:dt="r8">8533084966651</Timestamp><Current dt:dt="r8">0</Current><DateUtc dt:dt="string">2014-11-10T21:47:23Z</DateUtc></FrequencyChange></FrequencyChanges></Clock>\n,v4_BCL_f2-8-1,60.001,1.0.0.226,1,-552327835,2.0.10.242,2.0.10.242,11-10-2014,11/10/2014 9:47:23 PM,16:47:23,2.0.10.147,4,,,,,,,,,,,,NA,,,NA,,NA,,,NA,,,NA,,,6,1,4,PracProc,,,,vowel 1,vowel 2,,0,0,PracticeList,say.wav,,,,
v4_BCL_f2,8,1,<?xml version="1.0"?>\n<Clock xmlns:dt="urn:schemas-microsoft-com:datatypes"><Description dt:dt="string">E-Prime Primary Realtime Clock</Description><StartTime><Timestamp dt:dt="int">0</Timestamp><DateUtc dt:dt="string">2014-11-10T21:47:23Z</DateUtc></StartTime><FrequencyChanges><FrequencyChange><Frequency dt:dt="r8">2327510000</Frequency><Timestamp dt:dt="r8">8533084966651</Timestamp><Current dt:dt="r8">0</Current><DateUtc dt:dt="string">2014-11-10T21:47:23Z</DateUtc></FrequencyChange></FrequencyChanges></Clock>\n,v4_BCL_f2-8-1,60.001,1.0.0.226,1,-552327835,2.0.10.242,2.0.10.242,11-10-2014,11/10/2014 9:47:23 PM,16:47:23,2.0.10.147,5,,,,,,,,,,,,NA,,,NA,,NA,,,NA,,,NA,,,1,1,5,PracProc,,,,vowel 1,vowel 2,,0,0,PracticeList,key.wav,,,,
v4_BCL_f2,8,1,<?xml version="1.0"?>\n<Clock xmlns:dt="urn:schemas-microsoft-com:datatypes"><Description dt:dt="string">E-Prime Primary Realtime Clock</Description><StartTime><Timestamp dt:dt="int">0</Timestamp><DateUtc dt:dt="string">2014-11-10T21:47:23Z</DateUtc></StartTime><FrequencyChanges><FrequencyChange><Frequency dt:dt="r8">2327510000</Frequency><Timestamp dt:dt="r8">8533084966651</Timestamp><Current dt:dt="r8">0</Current><DateUtc dt:dt="string">2014-11-10T21:47:23Z</DateUtc></FrequencyChange></FrequencyChanges></Clock>\n,v4_BCL_f2-8-1,60.001,1.0.0.226,1,-552327835,2.0.10.242,2.0.10.242,11-10-2014,11/10/2014 9:47:23 PM,16:47:23,2.0.10.147,6,,,,,,,,,,,,NA,,,NA,,NA,,,NA,,,NA,,,3,1,6,PracProc,,,,vowel 1,vowel 2,,0,0,PracticeList,tea.wav,,,,
v4_BCL_f2,8,1,<?xml version="1.0"?>\n<Clock xmlns:dt="urn:schemas-microsoft-com:datatypes"><Description dt:dt="string">E-Prime Primary Realtime Clock</Description><StartTime><Timestamp dt:dt="int">0</Timestamp><DateUtc dt:dt="string">2014-11-10T21:47:23Z</DateUtc></StartTime><FrequencyChanges><FrequencyChange><Frequency dt:dt="r8">2327510000</Frequency><Timestamp dt:dt="r8">8533084966651</Timestamp><Current dt:dt="r8">0</Current><DateUtc dt:dt="string">2014-11-10T21:47:23Z</DateUtc></FrequencyChange></FrequencyChanges></Clock>\n,v4_BCL_f2-8-1,60.001,1.0.0.226,1,-552327835,2.0.10.242,2.0.10.242,11-10-2014,11/10/2014 9:47:23 PM,16:47:23,2.0.10.147,7,,,,,,,,,,,,NA,,,NA,,NA,,,NA,,,NA,,,6,2,7,PracProc,,,,vowel 1,vowel 2,1,457,172695,PracticeList,say.wav,,,,
v4_BCL_f2,8,1,<?xml version="1.0"?>\n<Clock xmlns:dt="urn:schemas-microsoft-com:datatypes"><Description dt:dt="string">E-Prime Primary Realtime Clock</Description><StartTime><Timestamp dt:dt="int">0</Timestamp><DateUtc dt:dt="string">2014-11-10T21:47:23Z</DateUtc></StartTime><FrequencyChanges><FrequencyChange><Frequency dt:dt="r8">2327510000</Frequency><Timestamp dt:dt="r8">8533084966651</Timestamp><Current dt:dt="r8">0</Current><DateUtc dt:dt="string">2014-11-10T21:47:23Z</DateUtc></FrequencyChange></FrequencyChanges></Clock>\n,v4_BCL_f2-8-1,60.001,1.0.0.226,1,-552327835,2.0.10.242,2.0.10.242,11-10-2014,11/10/2014 9:47:23 PM,16:47:23,2.0.10.147,8,,,,,,,,,,,,NA,,,NA,,NA,,,NA,,,NA,,,3,2,8,PracProc,,,,vowel 1,vowel 2,2,1306,174911,PracticeList,tea.wav,,,,
v4_BCL_f2,8,1,<?xml version="1.0"?>\n<Clock xmlns:dt="urn:schemas-microsoft-com:datatypes"><Description dt:dt="string">E-Prime Primary Realtime Clock</Description><StartTime><Timestamp dt:dt="int">0</Timestamp><DateUtc dt:dt="string">2014-11-10T21:47:23Z</DateUtc></StartTime><FrequencyChanges><FrequencyChange><Frequency dt:dt="r8">2327510000</Frequency><Timestamp dt:dt="r8">8533084966651</Timestamp><Current dt:dt="r8">0</Current><DateUtc dt:dt="string">2014-11-10T21:47:23Z</DateUtc></FrequencyChange></FrequencyChanges></Clock>\n,v4_BCL_f2-8-1,60.001,1.0.0.226,1,-552327835,2.0.10.242,2.0.10.242,11-10-2014,11/10/2014 9:47:23 PM,16:47:23,2.0.10.147,9,,,,,,,,,,,,NA,,,NA,,NA,,,NA,,,NA,,,5,2,9,PracProc,,,,vowel 1,vowel 2,2,424,176245,PracticeList,see.wav,,,,
v4_BCL_f2,8,1,<?xml version="1.0"?>\n<Clock xmlns:dt="urn:schemas-microsoft-com:datatypes"><Description dt:dt="string">E-Prime Primary Realtime Clock</Description><StartTime><Timestamp dt:dt="int">0</Timestamp><DateUtc dt:dt="string">2014-11-10T21:47:23Z</DateUtc></StartTime><FrequencyChanges><FrequencyChange><Frequency dt:dt="r8">2327510000</Frequency><Timestamp dt:dt="r8">8533084966651</Timestamp><Current dt:dt="r8">0</Current><DateUtc dt:dt="string">2014-11-10T21:47:23Z</DateUtc></FrequencyChange></FrequencyChanges></Clock>\n,v4_BCL_f2-8-1,60.001,1.0.0.226,1,-552327835,2.0.10.242,2.0.10.242,11-10-2014,11/10/2014 9:47:23 PM,16:47:23,2.0.10.147,10,,,,,,,,,,,,NA,,,NA,,NA,,,NA,,,NA,,,1,2,10,PracProc,,,,vowel 1,vowel 2,2,297,177452,PracticeList,key.wav,,,,
v4_BCL_f2,8,1,<?xml version="1.0"?>\n<Clock xmlns:dt="urn:schemas-microsoft-com:datatypes"><Description dt:dt="string">E-Prime Primary Realtime Clock</Description><StartTime><Timestamp dt:dt="int">0</Timestamp><DateUtc dt:dt="string">2014-11-10T21:47:23Z</DateUtc></StartTime><FrequencyChanges><FrequencyChange><Frequency dt:dt="r8">2327510000</Frequency><Timestamp dt:dt="r8">8533084966651</Timestamp><Current dt:dt="r8">0</Current><DateUtc dt:dt="string">2014-11-10T21:47:23Z</DateUtc></FrequencyChange></FrequencyChanges></Clock>\n,v4_BCL_f2-8-1,60.001,1.0.0.226,1,-552327835,2.0.10.242,2.0.10.242,11-10-2014,11/10/2014 9:47:23 PM,16:47:23,2.0.10.147,11,,,,,,,,,,,,NA,,,NA,,NA,,,NA,,,NA,,,4,2,11,PracProc,,,,vowel 1,vowel 2,1,205,178576,PracticeList,tay.wav,,,,
v4_BCL_f2,8,1,<?xml version="1.0"?>\n<Clock xmlns:dt="urn:schemas-microsoft-com:datatypes"><Description dt:dt="string">E-Prime Primary Realtime Clock</Description><StartTime><Timestamp dt:dt="int">0</Timestamp><DateUtc dt:dt="string">2014-11-10T21:47:23Z</DateUtc></StartTime><FrequencyChanges><FrequencyChange><Frequency dt:dt="r8">2327510000</Frequency><Timestamp dt:dt="r8">8533084966651</Timestamp><Current dt:dt="r8">0</Current><DateUtc dt:dt="string">2014-11-10T21:47:23Z</DateUtc></FrequencyChange></FrequencyChanges></Clock>\n,v4_BCL_f2-8-1,60.001,1.0.0.226,1,-552327835,2.0.10.242,2.0.10.242,11-10-2014,11/10/2014 9:47:23 PM,16:47:23,2.0.10.147,12,,,,,,,,,,,,NA,,,NA,,NA,,,NA,,,NA,,,2,2,12,PracProc,,,,vowel 1,vowel 2,1,322,179810,PracticeList,kay.wav,,,,
v4_BCL_f2,8,1,<?xml version="1.0"?>\n<Clock xmlns:dt="urn:schemas-microsoft-com:datatypes"><Description dt:dt="string">E-Prime Primary Realtime Clock</Description><StartTime><Timestamp dt:dt="int">0</Timestamp><DateUtc dt:dt="string">2014-11-10T21:47:23Z</DateUtc></StartTime><FrequencyChanges><FrequencyChange><Frequency dt:dt="r8">2327510000</Frequency><Timestamp dt:dt="r8">8533084966651</Timestamp><Current dt:dt="r8">0</Current><DateUtc dt:dt="string">2014-11-10T21:47:23Z</DateUtc></FrequencyChange></FrequencyChanges></Clock>\n,v4_BCL_f2-8-1,60.001,1.0.0.226,1,-552327835,2.0.10.242,2.0.10.242,11-10-2014,11/10/2014 9:47:23 PM,16:47:23,2.0.10.147,13,,,,,,,,,,,,NA,,,NA,,NA,,,NA,,,NA,,,6,3,13,PracProc,,,,vowel 1,vowel 2,1,421,181142,PracticeList,say.wav,,,,
v4_BCL_f2,8,1,<?xml version="1.0"?>\n<Clock xmlns:dt="urn:schemas-microsoft-com:datatypes"><Description dt:dt="string">E-Prime Primary Realtime Clock</Description><StartTime><Timestamp dt:dt="int">0</Timestamp><DateUtc dt:dt="string">2014-11-10T21:47:23Z</DateUtc></StartTime><FrequencyChanges><FrequencyChange><Frequency dt:dt="r8">2327510000</Frequency><Timestamp dt:dt="r8">8533084966651</Timestamp><Current dt:dt="r8">0</Current><DateUtc dt:dt="string">2014-11-10T21:47:23Z</DateUtc></FrequencyChange></FrequencyChanges></Clock>\n,v4_BCL_f2-8-1,60.001,1.0.0.226,1,-552327835,2.0.10.242,2.0.10.242,11-10-2014,11/10/2014 9:47:23 PM,16:47:23,2.0.10.147,14,,,,,,,,,,,,NA,,,NA,,NA,,,NA,,,NA,,,3,3,14,PracProc,,,,vowel 1,vowel 2,2,230,182285,PracticeList,tea.wav,,,,
v4_BCL_f2,8,1,<?xml version="1.0"?>\n<Clock xmlns:dt="urn:schemas-microsoft-com:datatypes"><Description dt:dt="string">E-Prime Primary Realtime Clock</Description><StartTime><Timestamp dt:dt="int">0</Timestamp><DateUtc dt:dt="string">2014-11-10T21:47:23Z</DateUtc></StartTime><FrequencyChanges><FrequencyChange><Frequency dt:dt="r8">2327510000</Frequency><Timestamp dt:dt="r8">8533084966651</Timestamp><Current dt:dt="r8">0</Current><DateUtc dt:dt="string">2014-11-10T21:47:23Z</DateUtc></FrequencyChange></FrequencyChanges></Clock>\n,v4_BCL_f2-8-1,60.001,1.0.0.226,1,-552327835,2.0.10.242,2.0.10.242,11-10-2014,11/10/2014 9:47:23 PM,16:47:23,2.0.10.147,15,,,,,,,,,,,,NA,,,NA,,NA,,,NA,,,NA,,,5,3,15,PracProc,,,,vowel 1,vowel 2,2,213,183418,PracticeList,see.wav,,,,
v4_BCL_f2,8,1,<?xml version="1.0"?>\n<Clock xmlns:dt="urn:schemas-microsoft-com:datatypes"><Description dt:dt="string">E-Prime Primary Realtime Clock</Description><StartTime><Timestamp dt:dt="int">0</Timestamp><DateUtc dt:dt="string">2014-11-10T21:47:23Z</DateUtc></StartTime><FrequencyChanges><FrequencyChange><Frequency dt:dt="r8">2327510000</Frequency><Timestamp dt:dt="r8">8533084966651</Timestamp><Current dt:dt="r8">0</Current><DateUtc dt:dt="string">2014-11-10T21:47:23Z</DateUtc></FrequencyChange></FrequencyChanges></Clock>\n,v4_BCL_f2-8-1,60.001,1.0.0.226,1,-552327835,2.0.10.242,2.0.10.242,11-10-2014,11/10/2014 9:47:23 PM,16:47:23,2.0.10.147,16,,,,,,,,,,,,NA,,,NA,,NA,,,NA,,,NA,,,4,3,16,PracProc,,,,vowel 1,vowel 2,2,354,184675,PracticeList,tay.wav,,,,
v4_BCL_f2,8,1,<?xml version="1.0"?>\n<Clock xmlns:dt="urn:schemas-microsoft-com:datatypes"><Description dt:dt="string">E-Prime Primary Realtime Clock</Description><StartTime><Timestamp dt:dt="int">0</Timestamp><DateUtc dt:dt="string">2014-11-10T21:47:23Z</DateUtc></StartTime><FrequencyChanges><FrequencyChange><Frequency dt:dt="r8">2327510000</Frequency><Timestamp dt:dt="r8">8533084966651</Timestamp><Current dt:dt="r8">0</Current><DateUtc dt:dt="string">2014-11-10T21:47:23Z</DateUtc></FrequencyChange></FrequencyChanges></Clock>\n,v4_BCL_f2-8-1,60.001,1.0.0.226,1,-552327835,2.0.10.242,2.0.10.242,11-10-2014,11/10/2014 9:47:23 PM,16:47:23,2.0.10.147,17,,,,,,,,,,,,NA,,,NA,,NA,,,NA,,,NA,,,2,3,17,PracProc,,,,vowel 1,vowel 2,1,466,186054,PracticeList,kay.wav,,,,
v4_BCL_f2,8,1,<?xml version="1.0"?>\n<Clock xmlns:dt="urn:schemas-microsoft-com:datatypes"><Description dt:dt="string">E-Prime Primary Realtime Clock</Description><StartTime><Timestamp dt:dt="int">0</Timestamp><DateUtc dt:dt="string">2014-11-10T21:47:23Z</DateUtc></StartTime><FrequencyChanges><FrequencyChange><Frequency dt:dt="r8">2327510000</Frequency><Timestamp dt:dt="r8">8533084966651</Timestamp><Current dt:dt="r8">0</Current><DateUtc dt:dt="string">2014-11-10T21:47:23Z</DateUtc></FrequencyChange></FrequencyChanges></Clock>\n,v4_BCL_f2-8-1,60.001,1.0.0.226,1,-552327835,2.0.10.242,2.0.10.242,11-10-2014,11/10/2014 9:47:23 PM,16:47:23,2.0.10.147,18,,,,,,,,,,,,NA,,,NA,,NA,,,NA,,,NA,,,1,3,18,PracProc,,,,vowel 1,vowel 2,2,474,187445,PracticeList,key.wav,,,,
v4_BCL_f2,8,1,<?xml version="1.0"?>\n<Clock xmlns:dt="urn:schemas-microsoft-com:datatypes"><Description dt:dt="string">E-Prime Primary Realtime Clock</Description><StartTime><Timestamp dt:dt="int">0</Timestamp><DateUtc dt:dt="string">2014-11-10T21:47:23Z</DateUtc></StartTime><FrequencyChanges><FrequencyChange><Frequency dt:dt="r8">2327510000</Frequency><Timestamp dt:dt="r8">8533084966651</Timestamp><Current dt:dt="r8">0</Current><DateUtc dt:dt="string">2014-11-10T21:47:23Z</DateUtc></FrequencyChange></FrequencyChanges></Clock>\n,v4_BCL_f2-8-1,60.001,1.0.0.226,1,-552327835,2.0.10.242,2.0.10.242,11-10-2014,11/10/2014 9:47:23 PM,16:47:23,2.0.10.147,19,,,32,1,1,,,,,,,2,,,g,,0.249,,,7.72,,,30.14,,,,,,ExposureProc,,,,vowel 1,vowel 2,,,,Block1,g2_f0_7_72_f2_30_14_dur_0_249_num_558.wav,,,,
v4_BCL_f2,8,1,<?xml version="1.0"?>\n<Clock xmlns:dt="urn:schemas-microsoft-com:datatypes"><Description dt:dt="string">E-Prime Primary Realtime Clock</Description><StartTime><Timestamp dt:dt="int">0</Timestamp><DateUtc dt:dt="string">2014-11-10T21:47:23Z</DateUtc></StartTime><FrequencyChanges><FrequencyChange><Frequency dt:dt="r8">2327510000</Frequency><Timestamp dt:dt="r8">8533084966651</Timestamp><Current dt:dt="r8">0</Current><DateUtc dt:dt="string">2014-11-10T21:47:23Z</DateUtc></FrequencyChange></FrequencyChanges></Clock>\n,v4_BCL_f2-8-1,60.001,1.0.0.226,1,-552327835,2.0.10.242,2.0.10.242,11-10-2014,11/10/2014 9:47:23 PM,16:47:23,2.0.10.147,20,,,20,1,2,,,,,,,2,,,d,,0.258,,,9.63,,,29.99,,,,,,ExposureProc,,,,vowel 1,vowel 2,,,,Block1,d2_f0_9_63_f2_29_99_dur_0_258_num_488.wav,,,,
v4_BCL_f2,8,1,<?xml version="1.0"?>\n<Clock xmlns:dt="urn:schemas-microsoft-com:datatypes"><Description dt:dt="string">E-Prime Primary Realtime Clock</Description><StartTime><Timestamp dt:dt="int">0</Timestamp><DateUtc dt:dt="string">2014-11-10T21:47:23Z</DateUtc></StartTime><FrequencyChanges><FrequencyChange><Frequency dt:dt="r8">2327510000</Frequency><Timestamp dt:dt="r8">8533084966651</Timestamp><Current dt:dt="r8">0</Current><DateUtc dt:dt="string">2014-11-10T21:47:23Z</DateUtc></FrequencyChange></FrequencyChanges></Clock>\n,v4_BCL_f2-8-1,60.001,1.0.0.226,1,-552327835,2.0.10.242,2.0.10.242,11-10-2014,11/10/2014 9:47:23 PM,16:47:23,2.0.10.147,21,,,4,1,3,,,,,,,1,,,b,,0.25,,,9.84,,,30.38,,,,,,ExposureProc,,,,vowel 1,vowel 2,,,,Block1,b1_f0_9_84_f2_30_38_dur_0_250_num_73.wav,,,,
v4_BCL_f2,8,1,<?xml version="1.0"?>\n<Clock xmlns:dt="urn:schemas-microsoft-com:datatypes"><Description dt:dt="string">E-Prime Primary Realtime Clock</Description><StartTime><Timestamp dt:dt="int">0</Timestamp><DateUtc dt:dt="string">2014-11-10T21:47:23Z</DateUtc></StartTime><FrequencyChanges><FrequencyChange><Frequency dt:dt="r8">2327510000</Frequency><Timestamp dt:dt="r8">8533084966651</Timestamp><Current dt:dt="r8">0</Current><DateUtc dt:dt="string">2014-11-10T21:47:23Z</DateUtc></FrequencyChange></FrequencyChanges></Clock>\n,v4_BCL_f2-8-1,60.001,1.0.0.226,1,-552327835,2.0.10.242,2.0.10.242,11-10-2014,11/10/2014 9:47:23 PM,16:47:23,2.0.10.147,22,,,16,1,4,,,,,,,1,,,d,,0.25,,,9.57,,,31.18,,,,,,ExposureProc,,,,vowel 1,vowel 2,,,,Block1,d1_f0_9_57_f2_31_18_dur_0_250_num_131.wav,,,,
v4_BCL_f2,8,1,<?xml version="1.0"?>\n<Clock xmlns:dt="urn:schemas-microsoft-com:datatypes"><Description dt:dt="string">E-Prime Primary Realtime Clock</Description><StartTime><Timestamp dt:dt="int">0</Timestamp><DateUtc dt:dt="string">2014-11-10T21:47:23Z</DateUtc></StartTime><FrequencyChanges><FrequencyChange><Frequency dt:dt="r8">2327510000</Frequency><Timestamp dt:dt="r8">8533084966651</Timestamp><Current dt:dt="r8">0</Current><DateUtc dt:dt="string">2014-11-10T21:47:23Z</DateUtc></FrequencyChange></FrequencyChanges></Clock>\n,v4_BCL_f2-8-1,60.001,1.0.0.226,1,-552327835,2.0.10.242,2.0.10.242,11-10-2014,11/10/2014 9:47:23 PM,16:47:23,2.0.10.147,23,,,22,1,5,,,,,,,2,,,d,,0.246,,,8.84,,,28.92,,,,,,ExposureProc,,,,vowel 1,vowel 2,,,,Block1,d2_f0_8_84_f2_28_92_dur_0_246_num_438.wav,,,,
v4_BCL_f2,8,1,<?xml version="1.0"?>\n<Clock xmlns:dt="urn:schemas-microsoft-com:datatypes"><Description dt:dt="string">E-Prime Primary Realtime Clock</Description><StartTime><Timestamp dt:dt="int">0</Timestamp><DateUtc dt:dt="string">2014-11-10T21:47:23Z</DateUtc></StartTime><FrequencyChanges><FrequencyChange><Frequency dt:dt="r8">2327510000</Frequency><Timestamp dt:dt="r8">8533084966651</Timestamp><Current dt:dt="r8">0</Current><DateUtc dt:dt="string">2014-11-10T21:47:23Z</DateUtc></FrequencyChange></FrequencyChanges></Clock>\n,v4_BCL_f2-8-1,60.001,1.0.0.226,1,-552327835,2.0.10.242,2.0.10.242,11-10-2014,11/10/2014 9:47:23 PM,16:47:23,2.0.10.147,24,,,8,1,6,,,,,,,2,,,b,,0.247,,,9.42,,,29.01,,,,,,ExposureProc,,,,vowel 1,vowel 2,,,,Block1,b2_f0_9_42_f2_29_01_dur_0_247_num_318.wav,,,,
v4_BCL_f2,8,1,<?xml version="1.0"?>\n<Clock xmlns:dt="urn:schemas-microsoft-com:datatypes"><Description dt:dt="string">E-Prime Primary Realtime Clock</Description><StartTime><Timestamp dt:dt="int">0</Timestamp><DateUtc dt:dt="string">2014-11-10T21:47:23Z</DateUtc></StartTime><FrequencyChanges><FrequencyChange><Frequency dt:dt="r8">2327510000</Frequency><Timestamp dt:dt="r8">8533084966651</Timestamp><Current dt:dt="r8">0</Current><DateUtc dt:dt="string">2014-11-10T21:47:23Z</DateUtc></FrequencyChange></FrequencyChanges></Clock>\n,v4_BCL_f2-8-1,60.001,1.0.0.226,1,-552327835,2.0.10.242,2.0.10.242,11-10-2014,11/10/2014 9:47:23 PM,16:47:23,2.0.10.147,25,,,13,1,7,,,,,,,1,,,d,,0.253,,,9.15,,,31.39,,,,,,ExposureProc,,,,vowel 1,vowel 2,,,,Block1,d1_f0_9_15_f2_31_39_dur_0_253_num_105.wav,,,,
v4_BCL_f2,8,1,<?xml version="1.0"?>\n<Clock xmlns:dt="urn:schemas-microsoft-com:datatypes"><Description dt:dt="string">E-Prime Primary Realtime Clock</Description><StartTime><Timestamp dt:dt="int">0</Timestamp><DateUtc dt:dt="string">2014-11-10T21:47:23Z</DateUtc></StartTime><FrequencyChanges><FrequencyChange><Frequency dt:dt="r8">2327510000</Frequency><Timestamp dt:dt="r8">8533084966651</Timestamp><Current dt:dt="r8">0</Current><DateUtc dt:dt="string">2014-11-10T21:47:23Z</DateUtc></FrequencyChange></FrequencyChanges></Clock>\n,v4_BCL_f2-8-1,60.001,1.0.0.226,1,-552327835,2.0.10.242,2.0.10.242,11-10-2014,11/10/2014 9:47:23 PM,16:47:23,2.0.10.147,26,,,14,1,8,,,,,,,1,,,d,,0.248,,,10.86,,,29.98,,,,,,ExposureProc,,,,vowel 1,vowel 2,,,,Block1,d1_f0_10_86_f2_29_98_dur_0_248_num_129.wav,,,,
v4_BCL_f2,8,1,<?xml version="1.0"?>\n<Clock xmlns:dt="urn:schemas-microsoft-com:datatypes"><Description dt:dt="string">E-Prime Primary Realtime Clock</Description><StartTime><Timestamp dt:dt="int">0</Timestamp><DateUtc dt:dt="string">2014-11-10T21:47:23Z</DateUtc></StartTime><FrequencyChanges><FrequencyChange><Frequency dt:dt="r8">2327510000</Frequency><Timestamp dt:dt="r8">8533084966651</Timestamp><Current dt:dt="r8">0</Current><DateUtc dt:dt="string">2014-11-10T21:47:23Z</DateUtc></FrequencyChange></FrequencyChanges></Clock>\n,v4_BCL_f2-8-1,60.001,1.0.0.226,1,-552327835,2.0.10.242,2.0.10.242,11-10-2014,11/10/2014 9:47:23 PM,16:47:23,2.0.10.147,27,,,23,1,9,,,,,,,2,,,d,,0.252,,,8.17,,,29.6,,,,,,ExposureProc,,,,vowel 1,vowel 2,,,,Block1,d2_f0_8_17_f2_29_60_dur_0_252_num_462.wav,,,,
v4_BCL_f2,8,1,<?xml version="1.0"?>\n<Clock xmlns:dt="urn:schemas-microsoft-com:datatypes"><Description dt:dt="string">E-Prime Primary Realtime Clock</Description><StartTime><Timestamp dt:dt="int">0</Timestamp><DateUtc dt:dt="string">2014-11-10T21:47:23Z</DateUtc></StartTime><FrequencyChanges><FrequencyChange><Frequency dt:dt="r8">2327510000</Frequency><Timestamp dt:dt="r8">8533084966651</Timestamp><Current dt:dt="r8">0</Current><DateUtc dt:dt="string">2014-11-10T21:47:23Z</DateUtc></FrequencyChange></FrequencyChanges></Clock>\n,v4_BCL_f2-8-1,60.001,1.0.0.226,1,-552327835,2.0.10.242,2.0.10.242,11-10-2014,11/10/2014 9:47:23 PM,16:47:23,2.0.10.147,28,,,17,1,10,,,,,,,2,,,d,,0.254,,,9.11,,,29.43,,,,,,ExposureProc,,,,vowel 1,vowel 2,,,,Block1,d2_f0_9_11_f2_29_43_dur_0_254_num_423.wav,,,,
v4_BCL_f2,8,1,<?xml version="1.0"?>\n<Clock xmlns:dt="urn:schemas-microsoft-com:datatypes"><Description dt:dt="string">E-Prime Primary Realtime Clock</Description><StartTime><Timestamp dt:dt="int">0</Timestamp><DateUtc dt:dt="string">2014-11-10T21:47:23Z</DateUtc></StartTime><FrequencyChanges><FrequencyChange><Frequency dt:dt="r8">2327510000</Frequency><Timestamp dt:dt="r8">8533084966651</Timestamp><Current dt:dt="r8">0</Current><DateUtc dt:dt="string">2014-11-10T21:47:23Z</DateUtc></FrequencyChange></FrequencyChanges></Clock>\n,v4_BCL_f2-8-1,60.001,1.0.0.226,1,-552327835,2.0.10.242,2.0.10.242,11-10-2014,11/10/2014 9:47:23 PM,16:47:23,2.0.10.147,29,,,28,1,11,,,,,,,1,,,g,,0.251,,,8.85,,,31.63,,,,,,ExposureProc,,,,vowel 1,vowel 2,,,,Block1,g1_f0_8_85_f2_31_63_dur_0_251_num_293.wav,,,,
v4_BCL_f2,8,1,<?xml version="1.0"?>\n<Clock xmlns:dt="urn:schemas-microsoft-com:datatypes"><Description dt:dt="string">E-Prime Primary Realtime Clock</Description><StartTime><Timestamp dt:dt="int">0</Timestamp><DateUtc dt:dt="string">2014-11-10T21:47:23Z</DateUtc></StartTime><FrequencyChanges><FrequencyChange><Frequency dt:dt="r8">2327510000</Frequency><Timestamp dt:dt="r8">8533084966651</Timestamp><Current dt:dt="r8">0</Current><DateUtc dt:dt="string">2014-11-10T21:47:23Z</DateUtc></FrequencyChange></FrequencyChanges></Clock>\n,v4_BCL_f2-8-1,60.001,1.0.0.226,1,-552327835,2.0.10.242,2.0.10.242,11-10-2014,11/10/2014 9:47:23 PM,16:47:23,2.0.10.147,30,,,24,1,12,,,,,,,2,,,d,,0.245,,,9.19,,,29.19,,,,,,ExposureProc,,,,vowel 1,vowel 2,,,,Block1,d2_f0_9_19_f2_29_19_dur_0_245_num_478.wav,,,,
v4_BCL_f2,8,1,<?xml version="1.0"?>\n<Clock xmlns:dt="urn:schemas-microsoft-com:datatypes"><Description dt:dt="string">E-Prime Primary Realtime Clock</Description><StartTime><Timestamp dt:dt="int">0</Timestamp><DateUtc dt:dt="string">2014-11-10T21:47:23Z</DateUtc></StartTime><FrequencyChanges><FrequencyChange><Frequency dt:dt="r8">2327510000</Frequency><Timestamp dt:dt="r8">8533084966651</Timestamp><Current dt:dt="r8">0</Current><DateUtc dt:dt="string">2014-11-10T21:47:23Z</DateUtc></FrequencyChange></FrequencyChanges></Clock>\n,v4_BCL_f2-8-1,60.001,1.0.0.226,1,-552327835,2.0.10.242,2.0.10.242,11-10-2014,11/10/2014 9:47:23 PM,16:47:23,2.0.10.147,31,,,7,1,13,,,,,,,2,,,b,,0.246,,,8.39,,,29.83,,,,,,ExposureProc,,,,vowel 1,vowel 2,,,,Block1,b2_f0_8_39_f2_29_83_dur_0_246_num_353.wav,,,,
v4_BCL_f2,8,1,<?xml version="1.0"?>\n<Clock xmlns:dt="urn:schemas-microsoft-com:datatypes"><Description dt:dt="string">E-Prime Primary Realtime Clock</Description><StartTime><Timestamp dt:dt="int">0</Timestamp><DateUtc dt:dt="string">2014-11-10T21:47:23Z</DateUtc></StartTime><FrequencyChanges><FrequencyChange><Frequency dt:dt="r8">2327510000</Frequency><Timestamp dt:dt="r8">8533084966651</Timestamp><Current dt:dt="r8">0</Current><DateUtc dt:dt="string">2014-11-10T21:47:23Z</DateUtc></FrequencyChange></FrequencyChanges></Clock>\n,v4_BCL_f2-8-1,60.001,1.0.0.226,1,-552327835,2.0.10.242,2.0.10.242,11-10-2014,11/10/2014 9:47:23 PM,16:47:23,2.0.10.147,32,,,29,1,14,,,,,,,1,,,g,,0.256,,,8.26,,,30.96,,,,,,ExposureProc,,,,vowel 1,vowel 2,,,,Block1,g1_f0_8_26_f2_30_96_dur_0_256_num_296.wav,,,,
v4_BCL_f2,8,1,<?xml version="1.0"?>\n<Clock xmlns:dt="urn:schemas-microsoft-com:datatypes"><Description dt:dt="string">E-Prime Primary Realtime Clock</Description><StartTime><Timestamp dt:dt="int">0</Timestamp><DateUtc dt:dt="string">2014-11-10T21:47:23Z</DateUtc></StartTime><FrequencyChanges><FrequencyChange><Frequency dt:dt="r8">2327510000</Frequency><Timestamp dt:dt="r8">8533084966651</Timestamp><Current dt:dt="r8">0</Current><DateUtc dt:dt="string">2014-11-10T21:47:23Z</DateUtc></FrequencyChange></FrequencyChanges></Clock>\n,v4_BCL_f2-8-1,60.001,1.0.0.226,1,-552327835,2.0.10.242,2.0.10.242,11-10-2014,11/10/2014 9:47:23 PM,16:47:23,2.0.10.147,33,,,9,1,15,,,,,,,1,,,b,,0.252,,,8.3,,,32.46,,,,,,ExposureProc,,,,vowel 1,vowel 2,,,,Block1,b1_f0_8_30_f2_32_46_dur_0_252_num_50.wav,,,,
v4_BCL_f2,8,1,<?xml version="1.0"?>\n<Clock xmlns:dt="urn:schemas-microsoft-com:datatypes"><Description dt:dt="string">E-Prime Primary Realtime Clock</Description><StartTime><Timestamp dt:dt="int">0</Timestamp><DateUtc dt:dt="string">2014-11-10T21:47:23Z</DateUtc></StartTime><FrequencyChanges><FrequencyChange><Frequency dt:dt="r8">2327510000</Frequency><Timestamp dt:dt="r8">8533084966651</Timestamp><Current dt:dt="r8">0</Current><DateUtc dt:dt="string">2014-11-10T21:47:23Z</DateUtc></FrequencyChange></FrequencyChanges></Clock>\n,v4_BCL_f2-8-1,60.001,1.0.0.226,1,-552327835,2.0.10.242,2.0.10.242,11-10-2014,11/10/2014 9:47:23 PM,16:47:23,2.0.10.147,34,,,35,1,16,,,,,,,2,,,g,,0.247,,,9.27,,,29.4,,,,,,ExposureProc,,,,vowel 1,vowel 2,,,,Block1,g2_f0_9_27_f2_29_40_dur_0_247_num_583.wav,,,,
v4_BCL_f2,8,1,<?xml version="1.0"?>\n<Clock xmlns:dt="urn:schemas-microsoft-com:datatypes"><Description dt:dt="string">E-Prime Primary Realtime Clock</Description><StartTime><Timestamp dt:dt="int">0</Timestamp><DateUtc dt:dt="string">2014-11-10T21:47:23Z</DateUtc></StartTime><FrequencyChanges><FrequencyChange><Frequency dt:dt="r8">2327510000</Frequency><Timestamp dt:dt="r8">8533084966651</Timestamp><Current dt:dt="r8">0</Current><DateUtc dt:dt="string">2014-11-10T21:47:23Z</DateUtc></FrequencyChange></FrequencyChanges></Clock>\n,v4_BCL_f2-8-1,60.001,1.0.0.226,1,-552327835,2.0.10.242,2.0.10.242,11-10-2014,11/10/2014 9:47:23 PM,16:47:23,2.0.10.147,35,,,25,1,17,,,,,,,1,,,g,,0.248,,,10.93,,,29.74,,,,,,ExposureProc,,,,vowel 1,vowel 2,,,,Block1,g1_f0_10_93_f2_29_74_dur_0_248_num_251.wav,,,,
v4_BCL_f2,8,1,<?xml version="1.0"?>\n<Clock xmlns:dt="urn:schemas-microsoft-com:datatypes"><Description dt:dt="string">E-Prime Primary Realtime Clock</Description><StartTime><Timestamp dt:dt="int">0</Timestamp><DateUtc dt:dt="string">2014-11-10T21:47:23Z</DateUtc></StartTime><FrequencyChanges><FrequencyChange><Frequency dt:dt="r8">2327510000</Frequency><Timestamp dt:dt="r8">8533084966651</Timestamp><Current dt:dt="r8">0</Current><DateUtc dt:dt="string">2014-11-10T21:47:23Z</DateUtc></FrequencyChange></FrequencyChanges></Clock>\n,v4_BCL_f2-8-1,60.001,1.0.0.226,1,-552327835,2.0.10.242,2.0.10.242,11-10-2014,11/10/2014 9:47:23 PM,16:47:23,2.0.10.147,36,,,3,1,18,,,,,,,2,,,b,,0.257,,,9.15,,,29.11,,,,,,ExposureProc,,,,vowel 1,vowel 2,,,,Block1,b2_f0_9_15_f2_29_11_dur_0_257_num_348.wav,,,,
v4_BCL_f2,8,1,<?xml version="1.0"?>\n<Clock xmlns:dt="urn:schemas-microsoft-com:datatypes"><Description dt:dt="string">E-Prime Primary Realtime Clock</Description><StartTime><Timestamp dt:dt="int">0</Timestamp><DateUtc dt:dt="string">2014-11-10T21:47:23Z</DateUtc></StartTime><FrequencyChanges><FrequencyChange><Frequency dt:dt="r8">2327510000</Frequency><Timestamp dt:dt="r8">8533084966651</Timestamp><Current dt:dt="r8">0</Current><DateUtc dt:dt="string">2014-11-10T21:47:23Z</DateUtc></FrequencyChange></FrequencyChanges></Clock>\n,v4_BCL_f2-8-1,60.001,1.0.0.226,1,-552327835,2.0.10.242,2.0.10.242,11-10-2014,11/10/2014 9:47:23 PM,16:47:23,2.0.10.147,37,,,34,1,19,,,,,,,2,,,g,,0.254,,,9.48,,,29.3,,,,,,ExposureProc,,,,vowel 1,vowel 2,,,,Block1,g2_f0_9_48_f2_29_30_dur_0_254_num_530.wav,,,,
v4_BCL_f2,8,1,<?xml version="1.0"?>\n<Clock xmlns:dt="urn:schemas-microsoft-com:datatypes"><Description dt:dt="string">E-Prime Primary Realtime Clock</Description><StartTime><Timestamp dt:dt="int">0</Timestamp><DateUtc dt:dt="string">2014-11-10T21:47:23Z</DateUtc></StartTime><FrequencyChanges><FrequencyChange><Frequency dt:dt="r8">2327510000</Frequency><Timestamp dt:dt="r8">8533084966651</Timestamp><Current dt:dt="r8">0</Current><DateUtc dt:dt="string">2014-11-10T21:47:23Z</DateUtc></FrequencyChange></FrequencyChanges></Clock>\n,v4_BCL_f2-8-1,60.001,1.0.0.226,1,-552327835,2.0.10.242,2.0.10.242,11-10-2014,11/10/2014 9:47:23 PM,16:47:23,2.0.10.147,38,,,36,1,20,,,,,,,2,,,g,,0.251,,,9.59,,,28.52,,,,,,ExposureProc,,,,vowel 1,vowel 2,,,,Block1,g2_f0_9_59_f2_28_52_dur_0_251_num_515.wav,,,,
v4_BCL_f2,8,1,<?xml version="1.0"?>\n<Clock xmlns:dt="urn:schemas-microsoft-com:datatypes"><Description dt:dt="string">E-Prime Primary Realtime Clock</Description><StartTime><Timestamp dt:dt="int">0</Timestamp><DateUtc dt:dt="string">2014-11-10T21:47:23Z</DateUtc></StartTime><FrequencyChanges><FrequencyChange><Frequency dt:dt="r8">2327510000</Frequency><Timestamp dt:dt="r8">8533084966651</Timestamp><Current dt:dt="r8">0</Current><DateUtc dt:dt="string">2014-11-10T21:47:23Z</DateUtc></FrequencyChange></FrequencyChanges></Clock>\n,v4_BCL_f2-8-1,60.001,1.0.0.226,1,-552327835,2.0.10.242,2.0.10.242,11-10-2014,11/10/2014 9:47:23 PM,16:47:23,2.0.10.147,39,,,21,1,21,,,,,,,1,,,d,,0.244,,,8.88,,,31.59,,,,,,ExposureProc,,,,vowel 1,vowel 2,,,,Block1,d1_f0_8_88_f2_31_59_dur_0_244_num_107.wav,,,,
v4_BCL_f2,8,1,<?xml version="1.0"?>\n<Clock xmlns:dt="urn:schemas-microsoft-com:datatypes"><Description dt:dt="string">E-Prime Primary Realtime Clock</Description><StartTime><Timestamp dt:dt="int">0</Timestamp><DateUtc dt:dt="string">2014-11-10T21:47:23Z</DateUtc></StartTime><FrequencyChanges><FrequencyChange><Frequency dt:dt="r8">2327510000</Frequency><Timestamp dt:dt="r8">8533084966651</Timestamp><Current dt:dt="r8">0</Current><DateUtc dt:dt="string">2014-11-10T21:47:23Z</DateUtc></FrequencyChange></FrequencyChanges></Clock>\n,v4_BCL_f2-8-1,60.001,1.0.0.226,1,-552327835,2.0.10.242,2.0.10.242,11-10-2014,11/10/2014 9:47:23 PM,16:47:23,2.0.10.147,40,,,31,1,22,,,,,,,2,,,g,,0.249,,,9.12,,,29.12,,,,,,ExposureProc,,,,vowel 1,vowel 2,,,,Block1,g2_f0_9_12_f2_29_12_dur_0_249_num_586.wav,,,,
v4_BCL_f2,8,1,<?xml version="1.0"?>\n<Clock xmlns:dt="urn:schemas-microsoft-com:datatypes"><Description dt:dt="string">E-Prime Primary Realtime Clock</Description><StartTime><Timestamp dt:dt="int">0</Timestamp><DateUtc dt:dt="string">2014-11-10T21:47:23Z</DateUtc></StartTime><FrequencyChanges><FrequencyChange><Frequency dt:dt="r8">2327510000</Frequency><Timestamp dt:dt="r8">8533084966651</Timestamp><Current dt:dt="r8">0</Current><DateUtc dt:dt="string">2014-11-10T21:47:23Z</DateUtc></FrequencyChange></FrequencyChanges></Clock>\n,v4_BCL_f2-8-1,60.001,1.0.0.226,1,-552327835,2.0.10.242,2.0.10.242,11-10-2014,11/10/2014 9:47:23 PM,16:47:23,2.0.10.147,41,,,30,1,23,,,,,,,1,,,g,,0.255,,,9.68,,,29.92,,,,,,ExposureProc,,,,vowel 1,vowel 2,,,,Block1,g1_f0_9_68_f2_29_92_dur_0_255_num_216.wav,,,,
v4_BCL_f2,8,1,<?xml version="1.0"?>\n<Clock xmlns:dt="urn:schemas-microsoft-com:datatypes"><Description dt:dt="string">E-Prime Primary Realtime Clock</Description><StartTime><Timestamp dt:dt="int">0</Timestamp><DateUtc dt:dt="string">2014-11-10T21:47:23Z</DateUtc></StartTime><FrequencyChanges><FrequencyChange><Frequency dt:dt="r8">2327510000</Frequency><Timestamp dt:dt="r8">8533084966651</Timestamp><Current dt:dt="r8">0</Current><DateUtc dt:dt="string">2014-11-10T21:47:23Z</DateUtc></FrequencyChange></FrequencyChanges></Clock>\n,v4_BCL_f2-8-1,60.001,1.0.0.226,1,-552327835,2.0.10.242,2.0.10.242,11-10-2014,11/10/2014 9:47:23 PM,16:47:23,2.0.10.147,42,,,5,1,24,,,,,,,1,,,b,,0.252,,,11.03,,,30.44,,,,,,ExposureProc,,,,vowel 1,vowel 2,,,,Block1,b1_f0_11_03_f2_30_44_dur_0_252_num_85.wav,,,,
v4_BCL_f2,8,1,<?xml version="1.0"?>\n<Clock xmlns:dt="urn:schemas-microsoft-com:datatypes"><Description dt:dt="string">E-Prime Primary Realtime Clock</Description><StartTime><Timestamp dt:dt="int">0</Timestamp><DateUtc dt:dt="string">2014-11-10T21:47:23Z</DateUtc></StartTime><FrequencyChanges><FrequencyChange><Frequency dt:dt="r8">2327510000</Frequency><Timestamp dt:dt="r8">8533084966651</Timestamp><Current dt:dt="r8">0</Current><DateUtc dt:dt="string">2014-11-10T21:47:23Z</DateUtc></FrequencyChange></FrequencyChanges></Clock>\n,v4_BCL_f2-8-1,60.001,1.0.0.226,1,-552327835,2.0.10.242,2.0.10.242,11-10-2014,11/10/2014 9:47:23 PM,16:47:23,2.0.10.147,43,,,15,1,25,,,,,,,1,,,d,,0.25,,,9.42,,,30.45,,,,,,ExposureProc,,,,vowel 1,vowel 2,,,,Block1,d1_f0_9_42_f2_30_45_dur_0_250_num_114.wav,,,,
v4_BCL_f2,8,1,<?xml version="1.0"?>\n<Clock xmlns:dt="urn:schemas-microsoft-com:datatypes"><Description dt:dt="string">E-Prime Primary Realtime Clock</Description><StartTime><Timestamp dt:dt="int">0</Timestamp><DateUtc dt:dt="string">2014-11-10T21:47:23Z</DateUtc></StartTime><FrequencyChanges><FrequencyChange><Frequency dt:dt="r8">2327510000</Frequency><Timestamp dt:dt="r8">8533084966651</Timestamp><Current dt:dt="r8">0</Current><DateUtc dt:dt="string">2014-11-10T21:47:23Z</DateUtc></FrequencyChange></FrequencyChanges></Clock>\n,v4_BCL_f2-8-1,60.001,1.0.0.226,1,-552327835,2.0.10.242,2.0.10.242,11-10-2014,11/10/2014 9:47:23 PM,16:47:23,2.0.10.147,44,,,19,1,26,,,,,,,1,,,d,,0.254,,,9.75,,,30.01,,,,,,ExposureProc,,,,vowel 1,vowel 2,,,,Block1,d1_f0_9_75_f2_30_01_dur_0_254_num_158.wav,,,,
v4_BCL_f2,8,1,<?xml version="1.0"?>\n<Clock xmlns:dt="urn:schemas-microsoft-com:datatypes"><Description dt:dt="string">E-Prime Primary Realtime Clock</Description><StartTime><Timestamp dt:dt="int">0</Timestamp><DateUtc dt:dt="string">2014-11-10T21:47:23Z</DateUtc></StartTime><FrequencyChanges><FrequencyChange><Frequency dt:dt="r8">2327510000</Frequency><Timestamp dt:dt="r8">8533084966651</Timestamp><Current dt:dt="r8">0</Current><DateUtc dt:dt="string">2014-11-10T21:47:23Z</DateUtc></FrequencyChange></FrequencyChanges></Clock>\n,v4_BCL_f2-8-1,60.001,1.0.0.226,1,-552327835,2.0.10.242,2.0.10.242,11-10-2014,11/10/2014 9:47:23 PM,16:47:23,2.0.10.147,45,,,6,1,27,,,,,,,2,,,b,,0.251,,,9.34,,,28.71,,,,,,ExposureProc,,,,vowel 1,vowel 2,,,,Block1,b2_f0_9_34_f2_28_71_dur_0_251_num_304.wav,,,,
v4_BCL_f2,8,1,<?xml version="1.0"?>\n<Clock xmlns:dt="urn:schemas-microsoft-com:datatypes"><Description dt:dt="string">E-Prime Primary Realtime Clock</Description><StartTime><Timestamp dt:dt="int">0</Timestamp><DateUtc dt:dt="string">2014-11-10T21:47:23Z</DateUtc></StartTime><FrequencyChanges><FrequencyChange><Frequency dt:dt="r8">2327510000</Frequency><Timestamp dt:dt="r8">8533084966651</Timestamp><Current dt:dt="r8">0</Current><DateUtc dt:dt="string">2014-11-10T21:47:23Z</DateUtc></FrequencyChange></FrequencyChanges></Clock>\n,v4_BCL_f2-8-1,60.001,1.0.0.226,1,-552327835,2.0.10.242,2.0.10.242,11-10-2014,11/10/2014 9:47:23 PM,16:47:23,2.0.10.147,46,,,33,1,28,,,,,,,1,,,g,,0.251,,,8.49,,,31.49,,,,,,ExposureProc,,,,vowel 1,vowel 2,,,,Block1,g1_f0_8_49_f2_31_49_dur_0_251_num_276.wav,,,,
v4_BCL_f2,8,1,<?xml version="1.0"?>\n<Clock xmlns:dt="urn:schemas-microsoft-com:datatypes"><Description dt:dt="string">E-Prime Primary Realtime Clock</Description><StartTime><Timestamp dt:dt="int">0</Timestamp><DateUtc dt:dt="string">2014-11-10T21:47:23Z</DateUtc></StartTime><FrequencyChanges><FrequencyChange><Frequency dt:dt="r8">2327510000</Frequency><Timestamp dt:dt="r8">8533084966651</Timestamp><Current dt:dt="r8">0</Current><DateUtc dt:dt="string">2014-11-10T21:47:23Z</DateUtc></FrequencyChange></FrequencyChanges></Clock>\n,v4_BCL_f2-8-1,60.001,1.0.0.226,1,-552327835,2.0.10.242,2.0.10.242,11-10-2014,11/10/2014 9:47:23 PM,16:47:23,2.0.10.147,47,,,10,1,29,,,,,,,1,,,b,,0.245,,,8.08,,,31.67,,,,,,ExposureProc,,,,vowel 1,vowel 2,,,,Block1,b1_f0_8_08_f2_31_67_dur_0_245_num_64.wav,,,,
v4_BCL_f2,8,1,<?xml version="1.0"?>\n<Clock xmlns:dt="urn:schemas-microsoft-com:datatypes"><Description dt:dt="string">E-Prime Primary Realtime Clock</Description><StartTime><Timestamp dt:dt="int">0</Timestamp><DateUtc dt:dt="string">2014-11-10T21:47:23Z</DateUtc></StartTime><FrequencyChanges><FrequencyChange><Frequency dt:dt="r8">2327510000</Frequency><Timestamp dt:dt="r8">8533084966651</Timestamp><Current dt:dt="r8">0</Current><DateUtc dt:dt="string">2014-11-10T21:47:23Z</DateUtc></FrequencyChange></FrequencyChanges></Clock>\n,v4_BCL_f2-8-1,60.001,1.0.0.226,1,-552327835,2.0.10.242,2.0.10.242,11-10-2014,11/10/2014 9:47:23 PM,16:47:23,2.0.10.147,48,,,27,1,30,,,,,,,1,,,g,,0.247,,,8.96,,,31.6,,,,,,ExposureProc,,,,vowel 1,vowel 2,,,,Block1,g1_f0_8_96_f2_31_60_dur_0_247_num_258.wav,,,,
v4_BCL_f2,8,1,<?xml version="1.0"?>\n<Clock xmlns:dt="urn:schemas-microsoft-com:datatypes"><Description dt:dt="string">E-Prime Primary Realtime Clock</Description><StartTime><Timestamp dt:dt="int">0</Timestamp><DateUtc dt:dt="string">2014-11-10T21:47:23Z</DateUtc></StartTime><FrequencyChanges><FrequencyChange><Frequency dt:dt="r8">2327510000</Frequency><Timestamp dt:dt="r8">8533084966651</Timestamp><Current dt:dt="r8">0</Current><DateUtc dt:dt="string">2014-11-10T21:47:23Z</DateUtc></FrequencyChange></FrequencyChanges></Clock>\n,v4_BCL_f2-8-1,60.001,1.0.0.226,1,-552327835,2.0.10.242,2.0.10.242,11-10-2014,11/10/2014 9:47:23 PM,16:47:23,2.0.10.147,49,,,2,1,31,,,,,,,2,,,b,,0.254,,,9.81,,,28.59,,,,,,ExposureProc,,,,vowel 1,vowel 2,,,,Block1,b2_f0_9_81_f2_28_59_dur_0_254_num_375.wav,,,,
v4_BCL_f2,8,1,<?xml version="1.0"?>\n<Clock xmlns:dt="urn:schemas-microsoft-com:datatypes"><Description dt:dt="string">E-Prime Primary Realtime Clock</Description><StartTime><Timestamp dt:dt="int">0</Timestamp><DateUtc dt:dt="string">2014-11-10T21:47:23Z</DateUtc></StartTime><FrequencyChanges><FrequencyChange><Frequency dt:dt="r8">2327510000</Frequency><Timestamp dt:dt="r8">8533084966651</Timestamp><Current dt:dt="r8">0</Current><DateUtc dt:dt="string">2014-11-10T21:47:23Z</DateUtc></FrequencyChange></FrequencyChanges></Clock>\n,v4_BCL_f2-8-1,60.001,1.0.0.226,1,-552327835,2.0.10.242,2.0.10.242,11-10-2014,11/10/2014 9:47:23 PM,16:47:23,2.0.10.147,50,,,26,1,32,,,,,,,2,,,g,,0.252,,,9.07,,,29.39,,,,,,ExposureProc,,,,vowel 1,vowel 2,,,,Block1,g2_f0_9_07_f2_29_39_dur_0_252_num_592.wav,,,,
v4_BCL_f2,8,1,<?xml version="1.0"?>\n<Clock xmlns:dt="urn:schemas-microsoft-com:datatypes"><Description dt:dt="string">E-Prime Primary Realtime Clock</Description><StartTime><Timestamp dt:dt="int">0</Timestamp><DateUtc dt:dt="string">2014-11-10T21:47:23Z</DateUtc></StartTime><FrequencyChanges><FrequencyChange><Frequency dt:dt="r8">2327510000</Frequency><Timestamp dt:dt="r8">8533084966651</Timestamp><Current dt:dt="r8">0</Current><DateUtc dt:dt="string">2014-11-10T21:47:23Z</DateUtc></FrequencyChange></FrequencyChanges></Clock>\n,v4_BCL_f2-8-1,60.001,1.0.0.226,1,-552327835,2.0.10.242,2.0.10.242,11-10-2014,11/10/2014 9:47:23 PM,16:47:23,2.0.10.147,51,,,12,1,33,,,,,,,2,,,b,,0.247,,,8.57,,,30.45,,,,,,ExposureProc,,,,vowel 1,vowel 2,,,,Block1,b2_f0_8_57_f2_30_45_dur_0_247_num_352.wav,,,,
v4_BCL_f2,8,1,<?xml version="1.0"?>\n<Clock xmlns:dt="urn:schemas-microsoft-com:datatypes"><Description dt:dt="string">E-Prime Primary Realtime Clock</Description><StartTime><Timestamp dt:dt="int">0</Timestamp><DateUtc dt:dt="string">2014-11-10T21:47:23Z</DateUtc></StartTime><FrequencyChanges><FrequencyChange><Frequency dt:dt="r8">2327510000</Frequency><Timestamp dt:dt="r8">8533084966651</Timestamp><Current dt:dt="r8">0</Current><DateUtc dt:dt="string">2014-11-10T21:47:23Z</DateUtc></FrequencyChange></FrequencyChanges></Clock>\n,v4_BCL_f2-8-1,60.001,1.0.0.226,1,-552327835,2.0.10.242,2.0.10.242,11-10-2014,11/10/2014 9:47:23 PM,16:47:23,2.0.10.147,52,,,1,1,34,,,,,,,1,,,b,,0.248,,,9.31,,,30.98,,,,,,ExposureProc,,,,Vowel 1,Vowel 2,,,,Block1,b1_f0_9_31_f2_30_98_dur_0_248_num_43.wav,,,,
v4_BCL_f2,8,1,<?xml version="1.0"?>\n<Clock xmlns:dt="urn:schemas-microsoft-com:datatypes"><Description dt:dt="string">E-Prime Primary Realtime Clock</Description><StartTime><Timestamp dt:dt="int">0</Timestamp><DateUtc dt:dt="string">2014-11-10T21:47:23Z</DateUtc></StartTime><FrequencyChanges><FrequencyChange><Frequency dt:dt="r8">2327510000</Frequency><Timestamp dt:dt="r8">8533084966651</Timestamp><Current dt:dt="r8">0</Current><DateUtc dt:dt="string">2014-11-10T21:47:23Z</DateUtc></FrequencyChange></FrequencyChanges></Clock>\n,v4_BCL_f2-8-1,60.001,1.0.0.226,1,-552327835,2.0.10.242,2.0.10.242,11-10-2014,11/10/2014 9:47:23 PM,16:47:23,2.0.10.147,53,,,11,1,35,,,,,,,1,,,b,,0.246,,,9.17,,,29.8,,,,,,ExposureProc,,,,vowel 1,vowel 2,,,,Block1,b1_f0_9_17_f2_29_80_dur_0_246_num_91.wav,,,,
v4_BCL_f2,8,1,<?xml version="1.0"?>\n<Clock xmlns:dt="urn:schemas-microsoft-com:datatypes"><Description dt:dt="string">E-Prime Primary Realtime Clock</Description><StartTime><Timestamp dt:dt="int">0</Timestamp><DateUtc dt:dt="string">2014-11-10T21:47:23Z</DateUtc></StartTime><FrequencyChanges><FrequencyChange><Frequency dt:dt="r8">2327510000</Frequency><Timestamp dt:dt="r8">8533084966651</Timestamp><Current dt:dt="r8">0</Current><DateUtc dt:dt="string">2014-11-10T21:47:23Z</DateUtc></FrequencyChange></FrequencyChanges></Clock>\n,v4_BCL_f2-8-1,60.001,1.0.0.226,1,-552327835,2.0.10.242,2.0.10.242,11-10-2014,11/10/2014 9:47:23 PM,16:47:23,2.0.10.147,54,,,18,1,36,,,,,,,2,,,d,,0.249,,,8.59,,,29.81,,,,,,ExposureProc,,,,vowel 1,vowel 2,,,,Block1,d2_f0_8_59_f2_29_81_dur_0_249_num_463.wav,,,,
v4_BCL_f2,8,1,<?xml version="1.0"?>\n<Clock xmlns:dt="urn:schemas-microsoft-com:datatypes"><Description dt:dt="string">E-Prime Primary Realtime Clock</Description><StartTime><Timestamp dt:dt="int">0</Timestamp><DateUtc dt:dt="string">2014-11-10T21:47:23Z</DateUtc></StartTime><FrequencyChanges><FrequencyChange><Frequency dt:dt="r8">2327510000</Frequency><Timestamp dt:dt="r8">8533084966651</Timestamp><Current dt:dt="r8">0</Current><DateUtc dt:dt="string">2014-11-10T21:47:23Z</DateUtc></FrequencyChange></FrequencyChanges></Clock>\n,v4_BCL_f2-8-1,60.001,1.0.0.226,1,-552327835,2.0.10.242,2.0.10.242,11-10-2014,11/10/2014 9:47:23 PM,16:47:23,2.0.10.147,55,,,,,,1,1,1,,,,2,,,b,,0.257,,,9.15,,,28.48,,,,,,TrialProc1,,,,vowel 1,vowel 2,1,429,297932,Block2,b2_f0_9_15_f2_28_48_dur_0_257_num_326.wav,,,,
v4_BCL_f2,8,1,<?xml version="1.0"?>\n<Clock xmlns:dt="urn:schemas-microsoft-com:datatypes"><Description dt:dt="string">E-Prime Primary Realtime Clock</Description><StartTime><Timestamp dt:dt="int">0</Timestamp><DateUtc dt:dt="string">2014-11-10T21:47:23Z</DateUtc></StartTime><FrequencyChanges><FrequencyChange><Frequency dt:dt="r8">2327510000</Frequency><Timestamp dt:dt="r8">8533084966651</Timestamp><Current dt:dt="r8">0</Current><DateUtc dt:dt="string">2014-11-10T21:47:23Z</DateUtc></FrequencyChange></FrequencyChanges></Clock>\n,v4_BCL_f2-8-1,60.001,1.0.0.226,1,-552327835,2.0.10.242,2.0.10.242,11-10-2014,11/10/2014 9:47:23 PM,16:47:23,2.0.10.147,56,,,,,,2,1,2,,,,1,,,b,,0.252,,,9.57,,,30.47,,,,,,TrialProc1,,,,vowel 1,vowel 2,1,399,299136,Block2,b1_f0_9_57_f2_30_47_dur_0_252_num_29.wav,,,,
v4_BCL_f2,8,1,<?xml version="1.0"?>\n<Clock xmlns:dt="urn:schemas-microsoft-com:datatypes"><Description dt:dt="string">E-Prime Primary Realtime Clock</Description><StartTime><Timestamp dt:dt="int">0</Timestamp><DateUtc dt:dt="string">2014-11-10T21:47:23Z</DateUtc></StartTime><FrequencyChanges><FrequencyChange><Frequency dt:dt="r8">2327510000</Frequency><Timestamp dt:dt="r8">8533084966651</Timestamp><Current dt:dt="r8">0</Current><DateUtc dt:dt="string">2014-11-10T21:47:23Z</DateUtc></FrequencyChange></FrequencyChanges></Clock>\n,v4_BCL_f2-8-1,60.001,1.0.0.226,1,-552327835,2.0.10.242,2.0.10.242,11-10-2014,11/10/2014 9:47:23 PM,16:47:23,2.0.10.147,57,,,,,,3,1,3,,,,2,,,b,,0.257,,,8.71,,,28.9,,,,,,TrialProc1,,,,vowel 1,vowel 2,1,240,300193,Block2,b2_f0_8_71_f2_28_90_dur_0_257_num_341.wav,,,,
v4_BCL_f2,8,1,<?xml version="1.0"?>\n<Clock xmlns:dt="urn:schemas-microsoft-com:datatypes"><Description dt:dt="string">E-Prime Primary Realtime Clock</Description><StartTime><Timestamp dt:dt="int">0</Timestamp><DateUtc dt:dt="string">2014-11-10T21:47:23Z</DateUtc></StartTime><FrequencyChanges><FrequencyChange><Frequency dt:dt="r8">2327510000</Frequency><Timestamp dt:dt="r8">8533084966651</Timestamp><Current dt:dt="r8">0</Current><DateUtc dt:dt="string">2014-11-10T21:47:23Z</DateUtc></FrequencyChange></FrequencyChanges></Clock>\n,v4_BCL_f2-8-1,60.001,1.0.0.226,1,-552327835,2.0.10.242,2.0.10.242,11-10-2014,11/10/2014 9:47:23 PM,16:47:23,2.0.10.147,58,,,,,,4,1,4,,,,2,,,b,,0.248,,,9.47,,,29.2,,,,,,TrialProc1,,,,vowel 1,vowel 2,1,235,301238,Block2,b2_f0_9_47_f2_29_20_dur_0_248_num_376.wav,,,,
v4_BCL_f2,8,1,<?xml version="1.0"?>\n<Clock xmlns:dt="urn:schemas-microsoft-com:datatypes"><Description dt:dt="string">E-Prime Primary Realtime Clock</Description><StartTime><Timestamp dt:dt="int">0</Timestamp><DateUtc dt:dt="string">2014-11-10T21:47:23Z</DateUtc></StartTime><FrequencyChanges><FrequencyChange><Frequency dt:dt="r8">2327510000</Frequency><Timestamp dt:dt="r8">8533084966651</Timestamp><Current dt:dt="r8">0</Current><DateUtc dt:dt="string">2014-11-10T21:47:23Z</DateUtc></FrequencyChange></FrequencyChanges></Clock>\n,v4_BCL_f2-8-1,60.001,1.0.0.226,1,-552327835,2.0.10.242,2.0.10.242,11-10-2014,11/10/2014 9:47:23 PM,16:47:23,2.0.10.147,59,,,,,,5,1,5,,,,2,,,b,,0.249,,,8.78,,,29.65,,,,,,TrialProc1,,,,vowel 1,vowel 2,1,443,302496,Block2,b2_f0_8_78_f2_29_65_dur_0_249_num_302.wav,,,,
v4_BCL_f2,8,1,<?xml version="1.0"?>\n<Clock xmlns:dt="urn:schemas-microsoft-com:datatypes"><Description dt:dt="string">E-Prime Primary Realtime Clock</Description><StartTime><Timestamp dt:dt="int">0</Timestamp><DateUtc dt:dt="string">2014-11-10T21:47:23Z</DateUtc></StartTime><FrequencyChanges><FrequencyChange><Frequency dt:dt="r8">2327510000</Frequency><Timestamp dt:dt="r8">8533084966651</Timestamp><Current dt:dt="r8">0</Current><DateUtc dt:dt="string">2014-11-10T21:47:23Z</DateUtc></FrequencyChange></FrequencyChanges></Clock>\n,v4_BCL_f2-8-1,60.001,1.0.0.226,1,-552327835,2.0.10.242,2.0.10.242,11-10-2014,11/10/2014 9:47:23 PM,16:47:23,2.0.10.147,60,,,,,,6,1,6,,,,2,,,b,,0.248,,,8.64,,,29.58,,,,,,TrialProc1,,,,vowel 1,vowel 2,1,293,303596,Block2,b2_f0_8_64_f2_29_58_dur_0_248_num_367.wav,,,,
v4_BCL_f2,8,1,<?xml version="1.0"?>\n<Clock xmlns:dt="urn:schemas-microsoft-com:datatypes"><Description dt:dt="string">E-Prime Primary Realtime Clock</Description><StartTime><Timestamp dt:dt="int">0</Timestamp><DateUtc dt:dt="string">2014-11-10T21:47:23Z</DateUtc></StartTime><FrequencyChanges><FrequencyChange><Frequency dt:dt="r8">2327510000</Frequency><Timestamp dt:dt="r8">8533084966651</Timestamp><Current dt:dt="r8">0</Current><DateUtc dt:dt="string">2014-11-10T21:47:23Z</DateUtc></FrequencyChange></FrequencyChanges></Clock>\n,v4_BCL_f2-8-1,60.001,1.0.0.226,1,-552327835,2.0.10.242,2.0.10.242,11-10-2014,11/10/2014 9:47:23 PM,16:47:23,2.0.10.147,61,,,,,,7,1,7,,,,1,,,b,,0.249,,,9.56,,,30.47,,,,,,TrialProc1,,,,vowel 1,vowel 2,1,266,304669,Block2,b1_f0_9_56_f2_30_47_dur_0_249_num_37.wav,,,,
v4_BCL_f2,8,1,<?xml version="1.0"?>\n<Clock xmlns:dt="urn:schemas-microsoft-com:datatypes"><Description dt:dt="string">E-Prime Primary Realtime Clock</Description><StartTime><Timestamp dt:dt="int">0</Timestamp><DateUtc dt:dt="string">2014-11-10T21:47:23Z</DateUtc></StartTime><FrequencyChanges><FrequencyChange><Frequency dt:dt="r8">2327510000</Frequency><Timestamp dt:dt="r8">8533084966651</Timestamp><Current dt:dt="r8">0</Current><DateUtc dt:dt="string">2014-11-10T21:47:23Z</DateUtc></FrequencyChange></FrequencyChanges></Clock>\n,v4_BCL_f2-8-1,60.001,1.0.0.226,1,-552327835,2.0.10.242,2.0.10.242,11-10-2014,11/10/2014 9:47:23 PM,16:47:23,2.0.10.147,62,,,,,,8,1,8,,,,1,,,b,,0.246,,,8.96,,,30.81,,,,,,TrialProc1,,,,vowel 1,vowel 2,1,283,305753,Block2,b1_f0_8_96_f2_30_81_dur_0_246_num_21.wav,,,,
v4_BCL_f2,8,1,<?xml version="1.0"?>\n<Clock xmlns:dt="urn:schemas-microsoft-com:datatypes"><Description dt:dt="string">E-Prime Primary Realtime Clock</Description><StartTime><Timestamp dt:dt="int">0</Timestamp><DateUtc dt:dt="string">2014-11-10T21:47:23Z</DateUtc></StartTime><FrequencyChanges><FrequencyChange><Frequency dt:dt="r8">2327510000</Frequency><Timestamp dt:dt="r8">8533084966651</Timestamp><Current dt:dt="r8">0</Current><DateUtc dt:dt="string">2014-11-10T21:47:23Z</DateUtc></FrequencyChange></FrequencyChanges></Clock>\n,v4_BCL_f2-8-1,60.001,1.0.0.226,1,-552327835,2.0.10.242,2.0.10.242,11-10-2014,11/10/2014 9:47:23 PM,16:47:23,2.0.10.147,63,,,,,,9,1,9,,,,1,,,b,,0.246,,,9.34,,,30.85,,,,,,TrialProc1,,,,vowel 1,vowel 2,1,210,306780,Block2,b1_f0_9_34_f2_30_85_dur_0_246_num_79.wav,,,,
v4_BCL_f2,8,1,<?xml version="1.0"?>\n<Clock xmlns:dt="urn:schemas-microsoft-com:datatypes"><Description dt:dt="string">E-Prime Primary Realtime Clock</Description><StartTime><Timestamp dt:dt="int">0</Timestamp><DateUtc dt:dt="string">2014-11-10T21:47:23Z</DateUtc></StartTime><FrequencyChanges><FrequencyChange><Frequency dt:dt="r8">2327510000</Frequency><Timestamp dt:dt="r8">8533084966651</Timestamp><Current dt:dt="r8">0</Current><DateUtc dt:dt="string">2014-11-10T21:47:23Z</DateUtc></FrequencyChange></FrequencyChanges></Clock>\n,v4_BCL_f2-8-1,60.001,1.0.0.226,1,-552327835,2.0.10.242,2.0.10.242,11-10-2014,11/10/2014 9:47:23 PM,16:47:23,2.0.10.147,64,,,,,,10,1,10,,,,1,,,b,,0.252,,,9.94,,,30.65,,,,,,TrialProc1,,,,vowel 1,vowel 2,1,258,307845,Block2,b1_f0_9_94_f2_30_65_dur_0_252_num_1.wav,,,,
v4_BCL_f2,8,1,<?xml version="1.0"?>\n<Clock xmlns:dt="urn:schemas-microsoft-com:datatypes"><Description dt:dt="string">E-Prime Primary Realtime Clock</Description><StartTime><Timestamp dt:dt="int">0</Timestamp><DateUtc dt:dt="string">2014-11-10T21:47:23Z</DateUtc></StartTime><FrequencyChanges><FrequencyChange><Frequency dt:dt="r8">2327510000</Frequency><Timestamp dt:dt="r8">8533084966651</Timestamp><Current dt:dt="r8">0</Current><DateUtc dt:dt="string">2014-11-10T21:47:23Z</DateUtc></FrequencyChange></FrequencyChanges></Clock>\n,v4_BCL_f2-8-1,60.001,1.0.0.226,1,-552327835,2.0.10.242,2.0.10.242,11-10-2014,11/10/2014 9:47:23 PM,16:47:23,2.0.10.147,65,,,,,,11,1,11,,,,2,,,b,,0.252,,,8.58,,,29.68,,,,,,TrialProc1,,,,vowel 1,vowel 2,1,231,308884,Block2,b2_f0_8_58_f2_29_68_dur_0_252_num_363.wav,,,,
v4_BCL_f2,8,1,<?xml version="1.0"?>\n<Clock xmlns:dt="urn:schemas-microsoft-com:datatypes"><Description dt:dt="string">E-Prime Primary Realtime Clock</Description><StartTime><Timestamp dt:dt="int">0</Timestamp><DateUtc dt:dt="string">2014-11-10T21:47:23Z</DateUtc></StartTime><FrequencyChanges><FrequencyChange><Frequency dt:dt="r8">2327510000</Frequency><Timestamp dt:dt="r8">8533084966651</Timestamp><Current dt:dt="r8">0</Current><DateUtc dt:dt="string">2014-11-10T21:47:23Z</DateUtc></FrequencyChange></FrequencyChanges></Clock>\n,v4_BCL_f2-8-1,60.001,1.0.0.226,1,-552327835,2.0.10.242,2.0.10.242,11-10-2014,11/10/2014 9:47:23 PM,16:47:23,2.0.10.147,66,,,,,,12,1,12,,,,1,,,b,,0.245,,,10.21,,,31.22,,,,,,TrialProc1,,,,vowel 1,vowel 2,1,259,309962,Block2,b1_f0_10_21_f2_31_22_dur_0_245_num_16.wav,,,,
v4_BCL_f2,8,1,<?xml version="1.0"?>\n<Clock xmlns:dt="urn:schemas-microsoft-com:datatypes"><Description dt:dt="string">E-Prime Primary Realtime Clock</Description><StartTime><Timestamp dt:dt="int">0</Timestamp><DateUtc dt:dt="string">2014-11-10T21:47:23Z</DateUtc></StartTime><FrequencyChanges><FrequencyChange><Frequency dt:dt="r8">2327510000</Frequency><Timestamp dt:dt="r8">8533084966651</Timestamp><Current dt:dt="r8">0</Current><DateUtc dt:dt="string">2014-11-10T21:47:23Z</DateUtc></FrequencyChange></FrequencyChanges></Clock>\n,v4_BCL_f2-8-1,60.001,1.0.0.226,1,-552327835,2.0.10.242,2.0.10.242,11-10-2014,11/10/2014 9:47:23 PM,16:47:23,2.0.10.147,67,,,,,,13,1,13,,,,2,,,b,,0.248,,,8.72,,,29.39,,,,,,TrialProc1,,,,vowel 1,vowel 2,1,370,311140,Block2,b2_f0_8_72_f2_29_39_dur_0_248_num_385.wav,,,,
v4_BCL_f2,8,1,<?xml version="1.0"?>\n<Clock xmlns:dt="urn:schemas-microsoft-com:datatypes"><Description dt:dt="string">E-Prime Primary Realtime Clock</Description><StartTime><Timestamp dt:dt="int">0</Timestamp><DateUtc dt:dt="string">2014-11-10T21:47:23Z</DateUtc></StartTime><FrequencyChanges><FrequencyChange><Frequency dt:dt="r8">2327510000</Frequency><Timestamp dt:dt="r8">8533084966651</Timestamp><Current dt:dt="r8">0</Current><DateUtc dt:dt="string">2014-11-10T21:47:23Z</DateUtc></FrequencyChange></FrequencyChanges></Clock>\n,v4_BCL_f2-8-1,60.001,1.0.0.226,1,-552327835,2.0.10.242,2.0.10.242,11-10-2014,11/10/2014 9:47:23 PM,16:47:23,2.0.10.147,68,,,,,,14,1,14,,,,1,,,b,,0.243,,,9.95,,,30.43,,,,,,TrialProc1,,,,vowel 1,vowel 2,1,191,312144,Block2,b1_f0_9_95_f2_30_43_dur_0_243_num_49.wav,,,,
v4_BCL_f2,8,1,<?xml version="1.0"?>\n<Clock xmlns:dt="urn:schemas-microsoft-com:datatypes"><Description dt:dt="string">E-Prime Primary Realtime Clock</Description><StartTime><Timestamp dt:dt="int">0</Timestamp><DateUtc dt:dt="string">2014-11-10T21:47:23Z</DateUtc></StartTime><FrequencyChanges><FrequencyChange><Frequency dt:dt="r8">2327510000</Frequency><Timestamp dt:dt="r8">8533084966651</Timestamp><Current dt:dt="r8">0</Current><DateUtc dt:dt="string">2014-11-10T21:47:23Z</DateUtc></FrequencyChange></FrequencyChanges></Clock>\n,v4_BCL_f2-8-1,60.001,1.0.0.226,1,-552327835,2.0.10.242,2.0.10.242,11-10-2014,11/10/2014 9:47:23 PM,16:47:23,2.0.10.147,69,,,,,,15,1,15,,,,1,,,b,,0.25,,,9.74,,,29.7,,,,,,TrialProc1,,,,vowel 1,vowel 2,1,270,313223,Block2,b1_f0_9_74_f2_29_70_dur_0_250_num_55.wav,,,,
v4_BCL_f2,8,1,<?xml version="1.0"?>\n<Clock xmlns:dt="urn:schemas-microsoft-com:datatypes"><Description dt:dt="string">E-Prime Primary Realtime Clock</Description><StartTime><Timestamp dt:dt="int">0</Timestamp><DateUtc dt:dt="string">2014-11-10T21:47:23Z</DateUtc></StartTime><FrequencyChanges><FrequencyChange><Frequency dt:dt="r8">2327510000</Frequency><Timestamp dt:dt="r8">8533084966651</Timestamp><Current dt:dt="r8">0</Current><DateUtc dt:dt="string">2014-11-10T21:47:23Z</DateUtc></FrequencyChange></FrequencyChanges></Clock>\n,v4_BCL_f2-8-1,60.001,1.0.0.226,1,-552327835,2.0.10.242,2.0.10.242,11-10-2014,11/10/2014 9:47:23 PM,16:47:23,2.0.10.147,70,,,,,,16,1,16,,,,2,,,b,,0.251,,,8.22,,,30.61,,,,,,TrialProc1,,,,vowel 1,vowel 2,1,346,314383,Block2,b2_f0_8_22_f2_30_61_dur_0_251_num_393.wav,,,,
v4_BCL_f2,8,1,<?xml version="1.0"?>\n<Clock xmlns:dt="urn:schemas-microsoft-com:datatypes"><Description dt:dt="string">E-Prime Primary Realtime Clock</Description><StartTime><Timestamp dt:dt="int">0</Timestamp><DateUtc dt:dt="string">2014-11-10T21:47:23Z</DateUtc></StartTime><FrequencyChanges><FrequencyChange><Frequency dt:dt="r8">2327510000</Frequency><Timestamp dt:dt="r8">8533084966651</Timestamp><Current dt:dt="r8">0</Current><DateUtc dt:dt="string">2014-11-10T21:47:23Z</DateUtc></FrequencyChange></FrequencyChanges></Clock>\n,v4_BCL_f2-8-1,60.001,1.0.0.226,1,-552327835,2.0.10.242,2.0.10.242,11-10-2014,11/10/2014 9:47:23 PM,16:47:23,2.0.10.147,71,,,,,,17,1,17,,,,1,,,b,,0.249,,,10.19,,,30.33,,,,,,TrialProc1,,,,vowel 1,vowel 2,1,257,315460,Block2,b1_f0_10_19_f2_30_33_dur_0_249_num_39.wav,,,,
v4_BCL_f2,8,1,<?xml version="1.0"?>\n<Clock xmlns:dt="urn:schemas-microsoft-com:datatypes"><Description dt:dt="string">E-Prime Primary Realtime Clock</Description><StartTime><Timestamp dt:dt="int">0</Timestamp><DateUtc dt:dt="string">2014-11-10T21:47:23Z</DateUtc></StartTime><FrequencyChanges><FrequencyChange><Frequency dt:dt="r8">2327510000</Frequency><Timestamp dt:dt="r8">8533084966651</Timestamp><Current dt:dt="r8">0</Current><DateUtc dt:dt="string">2014-11-10T21:47:23Z</DateUtc></FrequencyChange></FrequencyChanges></Clock>\n,v4_BCL_f2-8-1,60.001,1.0.0.226,1,-552327835,2.0.10.242,2.0.10.242,11-10-2014,11/10/2014 9:47:23 PM,16:47:23,2.0.10.147,72,,,,,,18,1,18,,,,1,,,b,,0.247,,,10.68,,,29.55,,,,,,TrialProc1,,,,vowel 1,vowel 2,1,251,316521,Block2,b1_f0_10_68_f2_29_55_dur_0_247_num_97.wav,,,,
v4_BCL_f2,8,1,<?xml version="1.0"?>\n<Clock xmlns:dt="urn:schemas-microsoft-com:datatypes"><Description dt:dt="string">E-Prime Primary Realtime Clock</Description><StartTime><Timestamp dt:dt="int">0</Timestamp><DateUtc dt:dt="string">2014-11-10T21:47:23Z</DateUtc></StartTime><FrequencyChanges><FrequencyChange><Frequency dt:dt="r8">2327510000</Frequency><Timestamp dt:dt="r8">8533084966651</Timestamp><Current dt:dt="r8">0</Current><DateUtc dt:dt="string">2014-11-10T21:47:23Z</DateUtc></FrequencyChange></FrequencyChanges></Clock>\n,v4_BCL_f2-8-1,60.001,1.0.0.226,1,-552327835,2.0.10.242,2.0.10.242,11-10-2014,11/10/2014 9:47:23 PM,16:47:23,2.0.10.147,73,,,,,,19,1,19,,,,2,,,b,,0.251,,,9.77,,,29.21,,,,,,TrialProc1,,,,vowel 1,vowel 2,1,165,317501,Block2,b2_f0_9_77_f2_29_21_dur_0_251_num_364.wav,,,,
v4_BCL_f2,8,1,<?xml version="1.0"?>\n<Clock xmlns:dt="urn:schemas-microsoft-com:datatypes"><Description dt:dt="string">E-Prime Primary Realtime Clock</Description><StartTime><Timestamp dt:dt="int">0</Timestamp><DateUtc dt:dt="string">2014-11-10T21:47:23Z</DateUtc></StartTime><FrequencyChanges><FrequencyChange><Frequency dt:dt="r8">2327510000</Frequency><Timestamp dt:dt="r8">8533084966651</Timestamp><Current dt:dt="r8">0</Current><DateUtc dt:dt="string">2014-11-10T21:47:23Z</DateUtc></FrequencyChange></FrequencyChanges></Clock>\n,v4_BCL_f2-8-1,60.001,1.0.0.226,1,-552327835,2.0.10.242,2.0.10.242,11-10-2014,11/10/2014 9:47:23 PM,16:47:23,2.0.10.147,74,,,,,,20,1,20,,,,2,,,b,,0.254,,,10.01,,,28.27,,,,,,TrialProc1,,,,vowel 1,vowel 2,1,209,318529,Block2,b2_f0_10_01_f2_28_27_dur_0_254_num_360.wav,,,,
v4_BCL_f2,8,1,<?xml version="1.0"?>\n<Clock xmlns:dt="urn:schemas-microsoft-com:datatypes"><Description dt:dt="string">E-Prime Primary Realtime Clock</Description><StartTime><Timestamp dt:dt="int">0</Timestamp><DateUtc dt:dt="string">2014-11-10T21:47:23Z</DateUtc></StartTime><FrequencyChanges><FrequencyChange><Frequency dt:dt="r8">2327510000</Frequency><Timestamp dt:dt="r8">8533084966651</Timestamp><Current dt:dt="r8">0</Current><DateUtc dt:dt="string">2014-11-10T21:47:23Z</DateUtc></FrequencyChange></FrequencyChanges></Clock>\n,v4_BCL_f2-8-1,60.001,1.0.0.226,1,-552327835,2.0.10.242,2.0.10.242,11-10-2014,11/10/2014 9:47:23 PM,16:47:23,2.0.10.147,75,,,,,,21,1,21,,,,2,,,b,,0.251,,,8.2,,,29.26,,,,,,TrialProc1,,,,vowel 1,vowel 2,1,279,319615,Block2,b2_f0_8_20_f2_29_26_dur_0_251_num_336.wav,,,,
v4_BCL_f2,8,1,<?xml version="1.0"?>\n<Clock xmlns:dt="urn:schemas-microsoft-com:datatypes"><Description dt:dt="string">E-Prime Primary Realtime Clock</Description><StartTime><Timestamp dt:dt="int">0</Timestamp><DateUtc dt:dt="string">2014-11-10T21:47:23Z</DateUtc></StartTime><FrequencyChanges><FrequencyChange><Frequency dt:dt="r8">2327510000</Frequency><Timestamp dt:dt="r8">8533084966651</Timestamp><Current dt:dt="r8">0</Current><DateUtc dt:dt="string">2014-11-10T21:47:23Z</DateUtc></FrequencyChange></FrequencyChanges></Clock>\n,v4_BCL_f2-8-1,60.001,1.0.0.226,1,-552327835,2.0.10.242,2.0.10.242,11-10-2014,11/10/2014 9:47:23 PM,16:47:23,2.0.10.147,76,,,,,,22,1,22,,,,2,,,b,,0.256,,,9.43,,,28.23,,,,,,TrialProc1,,,,vowel 1,vowel 2,1,237,320657,Block2,b2_f0_9_43_f2_28_23_dur_0_256_num_338.wav,,,,
v4_BCL_f2,8,1,<?xml version="1.0"?>\n<Clock xmlns:dt="urn:schemas-microsoft-com:datatypes"><Description dt:dt="string">E-Prime Primary Realtime Clock</Description><StartTime><Timestamp dt:dt="int">0</Timestamp><DateUtc dt:dt="string">2014-11-10T21:47:23Z</DateUtc></StartTime><FrequencyChanges><FrequencyChange><Frequency dt:dt="r8">2327510000</Frequency><Timestamp dt:dt="r8">8533084966651</Timestamp><Current dt:dt="r8">0</Current><DateUtc dt:dt="string">2014-11-10T21:47:23Z</DateUtc></FrequencyChange></FrequencyChanges></Clock>\n,v4_BCL_f2-8-1,60.001,1.0.0.226,1,-552327835,2.0.10.242,2.0.10.242,11-10-2014,11/10/2014 9:47:23 PM,16:47:23,2.0.10.147,77,,,,,,23,1,23,,,,1,,,b,,0.245,,,10.38,,,30.45,,,,,,TrialProc1,,,,vowel 1,vowel 2,1,125,321595,Block2,b1_f0_10_38_f2_30_45_dur_0_245_num_51.wav,,,,
v4_BCL_f2,8,1,<?xml version="1.0"?>\n<Clock xmlns:dt="urn:schemas-microsoft-com:datatypes"><Description dt:dt="string">E-Prime Primary Realtime Clock</Description><StartTime><Timestamp dt:dt="int">0</Timestamp><DateUtc dt:dt="string">2014-11-10T21:47:23Z</DateUtc></StartTime><FrequencyChanges><FrequencyChange><Frequency dt:dt="r8">2327510000</Frequency><Timestamp dt:dt="r8">8533084966651</Timestamp><Current dt:dt="r8">0</Current><DateUtc dt:dt="string">2014-11-10T21:47:23Z</DateUtc></FrequencyChange></FrequencyChanges></Clock>\n,v4_BCL_f2-8-1,60.001,1.0.0.226,1,-552327835,2.0.10.242,2.0.10.242,11-10-2014,11/10/2014 9:47:23 PM,16:47:23,2.0.10.147,78,,,,,,24,1,24,,,,2,,,b,,0.247,,,9.2,,,28.55,,,,,,TrialProc1,,,,vowel 1,vowel 2,1,271,322674,Block2,b2_f0_9_20_f2_28_55_dur_0_247_num_398.wav,,,,
v4_BCL_f2,8,1,<?xml version="1.0"?>\n<Clock xmlns:dt="urn:schemas-microsoft-com:datatypes"><Description dt:dt="string">E-Prime Primary Realtime Clock</Description><StartTime><Timestamp dt:dt="int">0</Timestamp><DateUtc dt:dt="string">2014-11-10T21:47:23Z</DateUtc></StartTime><FrequencyChanges><FrequencyChange><Frequency dt:dt="r8">2327510000</Frequency><Timestamp dt:dt="r8">8533084966651</Timestamp><Current dt:dt="r8">0</Current><DateUtc dt:dt="string">2014-11-10T21:47:23Z</DateUtc></FrequencyChange></FrequencyChanges></Clock>\n,v4_BCL_f2-8-1,60.001,1.0.0.226,1,-552327835,2.0.10.242,2.0.10.242,11-10-2014,11/10/2014 9:47:23 PM,16:47:23,2.0.10.147,79,,,,,,25,1,25,,,,2,,,b,,0.255,,,9.85,,,28.41,,,,,,TrialProc1,,,,vowel 1,vowel 2,1,247,323733,Block2,b2_f0_9_85_f2_28_41_dur_0_255_num_324.wav,,,,
v4_BCL_f2,8,1,<?xml version="1.0"?>\n<Clock xmlns:dt="urn:schemas-microsoft-com:datatypes"><Description dt:dt="string">E-Prime Primary Realtime Clock</Description><StartTime><Timestamp dt:dt="int">0</Timestamp><DateUtc dt:dt="string">2014-11-10T21:47:23Z</DateUtc></StartTime><FrequencyChanges><FrequencyChange><Frequency dt:dt="r8">2327510000</Frequency><Timestamp dt:dt="r8">8533084966651</Timestamp><Current dt:dt="r8">0</Current><DateUtc dt:dt="string">2014-11-10T21:47:23Z</DateUtc></FrequencyChange></FrequencyChanges></Clock>\n,v4_BCL_f2-8-1,60.001,1.0.0.226,1,-552327835,2.0.10.242,2.0.10.242,11-10-2014,11/10/2014 9:47:23 PM,16:47:23,2.0.10.147,80,,,,,,26,1,26,,,,1,,,b,,0.255,,,9.71,,,30.7,,,,,,TrialProc1,,,,vowel 1,vowel 2,1,179,324732,Block2,b1_f0_9_71_f2_30_70_dur_0_255_num_13.wav,,,,
v4_BCL_f2,8,1,<?xml version="1.0"?>\n<Clock xmlns:dt="urn:schemas-microsoft-com:datatypes"><Description dt:dt="string">E-Prime Primary Realtime Clock</Description><StartTime><Timestamp dt:dt="int">0</Timestamp><DateUtc dt:dt="string">2014-11-10T21:47:23Z</DateUtc></StartTime><FrequencyChanges><FrequencyChange><Frequency dt:dt="r8">2327510000</Frequency><Timestamp dt:dt="r8">8533084966651</Timestamp><Current dt:dt="r8">0</Current><DateUtc dt:dt="string">2014-11-10T21:47:23Z</DateUtc></FrequencyChange></FrequencyChanges></Clock>\n,v4_BCL_f2-8-1,60.001,1.0.0.226,1,-552327835,2.0.10.242,2.0.10.242,11-10-2014,11/10/2014 9:47:23 PM,16:47:23,2.0.10.147,81,,,,,,27,1,27,,,,1,,,b,,0.245,,,10.1,,,30.69,,,,,,TrialProc1,,,,vowel 1,vowel 2,1,435,325988,Block2,b1_f0_10_10_f2_30_69_dur_0_245_num_35.wav,,,,
v4_BCL_f2,8,1,<?xml version="1.0"?>\n<Clock xmlns:dt="urn:schemas-microsoft-com:datatypes"><Description dt:dt="string">E-Prime Primary Realtime Clock</Description><StartTime><Timestamp dt:dt="int">0</Timestamp><DateUtc dt:dt="string">2014-11-10T21:47:23Z</DateUtc></StartTime><FrequencyChanges><FrequencyChange><Frequency dt:dt="r8">2327510000</Frequency><Timestamp dt:dt="r8">8533084966651</Timestamp><Current dt:dt="r8">0</Current><DateUtc dt:dt="string">2014-11-10T21:47:23Z</DateUtc></FrequencyChange></FrequencyChanges></Clock>\n,v4_BCL_f2-8-1,60.001,1.0.0.226,1,-552327835,2.0.10.242,2.0.10.242,11-10-2014,11/10/2014 9:47:23 PM,16:47:23,2.0.10.147,82,,,,,,28,1,28,,,,1,,,b,,0.248,,,9.76,,,30.46,,,,,,TrialProc1,,,,vowel 1,vowel 2,1,212,327015,Block2,b1_f0_9_76_f2_30_46_dur_0_248_num_74.wav,,,,
v4_BCL_f2,8,1,<?xml version="1.0"?>\n<Clock xmlns:dt="urn:schemas-microsoft-com:datatypes"><Description dt:dt="string">E-Prime Primary Realtime Clock</Description><StartTime><Timestamp dt:dt="int">0</Timestamp><DateUtc dt:dt="string">2014-11-10T21:47:23Z</DateUtc></StartTime><FrequencyChanges><FrequencyChange><Frequency dt:dt="r8">2327510000</Frequency><Timestamp dt:dt="r8">8533084966651</Timestamp><Current dt:dt="r8">0</Current><DateUtc dt:dt="string">2014-11-10T21:47:23Z</DateUtc></FrequencyChange></FrequencyChanges></Clock>\n,v4_BCL_f2-8-1,60.001,1.0.0.226,1,-552327835,2.0.10.242,2.0.10.242,11-10-2014,11/10/2014 9:47:23 PM,16:47:23,2.0.10.147,83,,,,,,29,1,29,,,,1,,,b,,0.25,,,9.86,,,30.19,,,,,,TrialProc1,,,,vowel 1,vowel 2,1,192,328012,Block2,b1_f0_9_86_f2_30_19_dur_0_250_num_72.wav,,,,
v4_BCL_f2,8,1,<?xml version="1.0"?>\n<Clock xmlns:dt="urn:schemas-microsoft-com:datatypes"><Description dt:dt="string">E-Prime Primary Realtime Clock</Description><StartTime><Timestamp dt:dt="int">0</Timestamp><DateUtc dt:dt="string">2014-11-10T21:47:23Z</DateUtc></StartTime><FrequencyChanges><FrequencyChange><Frequency dt:dt="r8">2327510000</Frequency><Timestamp dt:dt="r8">8533084966651</Timestamp><Current dt:dt="r8">0</Current><DateUtc dt:dt="string">2014-11-10T21:47:23Z</DateUtc></FrequencyChange></FrequencyChanges></Clock>\n,v4_BCL_f2-8-1,60.001,1.0.0.226,1,-552327835,2.0.10.242,2.0.10.242,11-10-2014,11/10/2014 9:47:23 PM,16:47:23,2.0.10.147,84,,,,,,30,1,30,,,,2,,,b,,0.247,,,8.77,,,29.66,,,,,,TrialProc1,,,,vowel 1,vowel 2,1,456,329276,Block2,b2_f0_8_77_f2_29_66_dur_0_247_num_344.wav,,,,
v4_BCL_f2,8,1,<?xml version="1.0"?>\n<Clock xmlns:dt="urn:schemas-microsoft-com:datatypes"><Description dt:dt="string">E-Prime Primary Realtime Clock</Description><StartTime><Timestamp dt:dt="int">0</Timestamp><DateUtc dt:dt="string">2014-11-10T21:47:23Z</DateUtc></StartTime><FrequencyChanges><FrequencyChange><Frequency dt:dt="r8">2327510000</Frequency><Timestamp dt:dt="r8">8533084966651</Timestamp><Current dt:dt="r8">0</Current><DateUtc dt:dt="string">2014-11-10T21:47:23Z</DateUtc></FrequencyChange></FrequencyChanges></Clock>\n,v4_BCL_f2-8-1,60.001,1.0.0.226,1,-552327835,2.0.10.242,2.0.10.242,11-10-2014,11/10/2014 9:47:23 PM,16:47:23,2.0.10.147,85,,,,,,31,1,31,,,,1,,,b,,0.25,,,9.72,,,31.13,,,,,,TrialProc1,,,,vowel 1,vowel 2,1,134,330220,Block2,b1_f0_9_72_f2_31_13_dur_0_250_num_96.wav,,,,
v4_BCL_f2,8,1,<?xml version="1.0"?>\n<Clock xmlns:dt="urn:schemas-microsoft-com:datatypes"><Description dt:dt="string">E-Prime Primary Realtime Clock</Description><StartTime><Timestamp dt:dt="int">0</Timestamp><DateUtc dt:dt="string">2014-11-10T21:47:23Z</DateUtc></StartTime><FrequencyChanges><FrequencyChange><Frequency dt:dt="r8">2327510000</Frequency><Timestamp dt:dt="r8">8533084966651</Timestamp><Current dt:dt="r8">0</Current><DateUtc dt:dt="string">2014-11-10T21:47:23Z</DateUtc></FrequencyChange></FrequencyChanges></Clock>\n,v4_BCL_f2-8-1,60.001,1.0.0.226,1,-552327835,2.0.10.242,2.0.10.242,11-10-2014,11/10/2014 9:47:23 PM,16:47:23,2.0.10.147,86,,,,,,32,1,32,,,,1,,,b,,0.25,,,10.63,,,29.66,,,,,,TrialProc1,,,,vowel 1,vowel 2,1,174,331210,Block2,b1_f0_10_63_f2_29_66_dur_0_250_num_22.wav,,,,
v4_BCL_f2,8,1,<?xml version="1.0"?>\n<Clock xmlns:dt="urn:schemas-microsoft-com:datatypes"><Description dt:dt="string">E-Prime Primary Realtime Clock</Description><StartTime><Timestamp dt:dt="int">0</Timestamp><DateUtc dt:dt="string">2014-11-10T21:47:23Z</DateUtc></StartTime><FrequencyChanges><FrequencyChange><Frequency dt:dt="r8">2327510000</Frequency><Timestamp dt:dt="r8">8533084966651</Timestamp><Current dt:dt="r8">0</Current><DateUtc dt:dt="string">2014-11-10T21:47:23Z</DateUtc></FrequencyChange></FrequencyChanges></Clock>\n,v4_BCL_f2-8-1,60.001,1.0.0.226,1,-552327835,2.0.10.242,2.0.10.242,11-10-2014,11/10/2014 9:47:23 PM,16:47:23,2.0.10.147,87,,,,,,33,1,33,,,,1,,,b,,0.248,,,9.58,,,31.25,,,,,,TrialProc1,,,,vowel 1,vowel 2,1,279,332299,Block2,b1_f0_9_58_f2_31_25_dur_0_248_num_77.wav,,,,
v4_BCL_f2,8,1,<?xml version="1.0"?>\n<Clock xmlns:dt="urn:schemas-microsoft-com:datatypes"><Description dt:dt="string">E-Prime Primary Realtime Clock</Description><StartTime><Timestamp dt:dt="int">0</Timestamp><DateUtc dt:dt="string">2014-11-10T21:47:23Z</DateUtc></StartTime><FrequencyChanges><FrequencyChange><Frequency dt:dt="r8">2327510000</Frequency><Timestamp dt:dt="r8">8533084966651</Timestamp><Current dt:dt="r8">0</Current><DateUtc dt:dt="string">2014-11-10T21:47:23Z</DateUtc></FrequencyChange></FrequencyChanges></Clock>\n,v4_BCL_f2-8-1,60.001,1.0.0.226,1,-552327835,2.0.10.242,2.0.10.242,11-10-2014,11/10/2014 9:47:23 PM,16:47:23,2.0.10.147,88,,,,,,34,1,34,,,,2,,,b,,0.247,,,8.33,,,29.71,,,,,,TrialProc1,,,,vowel 1,vowel 2,1,369,333489,Block2,b2_f0_8_33_f2_29_71_dur_0_247_num_305.wav,,,,
v4_BCL_f2,8,1,<?xml version="1.0"?>\n<Clock xmlns:dt="urn:schemas-microsoft-com:datatypes"><Description dt:dt="string">E-Prime Primary Realtime Clock</Description><StartTime><Timestamp dt:dt="int">0</Timestamp><DateUtc dt:dt="string">2014-11-10T21:47:23Z</DateUtc></StartTime><FrequencyChanges><FrequencyChange><Frequency dt:dt="r8">2327510000</Frequency><Timestamp dt:dt="r8">8533084966651</Timestamp><Current dt:dt="r8">0</Current><DateUtc dt:dt="string">2014-11-10T21:47:23Z</DateUtc></FrequencyChange></FrequencyChanges></Clock>\n,v4_BCL_f2-8-1,60.001,1.0.0.226,1,-552327835,2.0.10.242,2.0.10.242,11-10-2014,11/10/2014 9:47:23 PM,16:47:23,2.0.10.147,89,,,,,,35,1,35,,,,1,,,b,,0.244,,,9.68,,,30.93,,,,,,TrialProc1,,,,vowel 1,vowel 2,1,223,334526,Block2,b1_f0_9_68_f2_30_93_dur_0_244_num_36.wav,,,,
v4_BCL_f2,8,1,<?xml version="1.0"?>\n<Clock xmlns:dt="urn:schemas-microsoft-com:datatypes"><Description dt:dt="string">E-Prime Primary Realtime Clock</Description><StartTime><Timestamp dt:dt="int">0</Timestamp><DateUtc dt:dt="string">2014-11-10T21:47:23Z</DateUtc></StartTime><FrequencyChanges><FrequencyChange><Frequency dt:dt="r8">2327510000</Frequency><Timestamp dt:dt="r8">8533084966651</Timestamp><Current dt:dt="r8">0</Current><DateUtc dt:dt="string">2014-11-10T21:47:23Z</DateUtc></FrequencyChange></FrequencyChanges></Clock>\n,v4_BCL_f2-8-1,60.001,1.0.0.226,1,-552327835,2.0.10.242,2.0.10.242,11-10-2014,11/10/2014 9:47:23 PM,16:47:23,2.0.10.147,90,,,,,,36,1,36,,,,2,,,b,,0.254,,,7.79,,,30.3,,,,,,TrialProc1,,,,vowel 1,vowel 2,1,307,335643,Block2,b2_f0_7_79_f2_30_30_dur_0_254_num_377.wav,,,,
v4_BCL_f2,8,1,<?xml version="1.0"?>\n<Clock xmlns:dt="urn:schemas-microsoft-com:datatypes"><Description dt:dt="string">E-Prime Primary Realtime Clock</Description><StartTime><Timestamp dt:dt="int">0</Timestamp><DateUtc dt:dt="string">2014-11-10T21:47:23Z</DateUtc></StartTime><FrequencyChanges><FrequencyChange><Frequency dt:dt="r8">2327510000</Frequency><Timestamp dt:dt="r8">8533084966651</Timestamp><Current dt:dt="r8">0</Current><DateUtc dt:dt="string">2014-11-10T21:47:23Z</DateUtc></FrequencyChange></FrequencyChanges></Clock>\n,v4_BCL_f2-8-1,60.001,1.0.0.226,1,-552327835,2.0.10.242,2.0.10.242,11-10-2014,11/10/2014 9:47:23 PM,16:47:23,2.0.10.147,91,,,,,,37,1,37,,,,2,,,b,,0.251,,,7.99,,,31.06,,,,,,TrialProc1,,,,vowel 1,vowel 2,1,760,337213,Block2,b2_f0_7_99_f2_31_06_dur_0_251_num_306.wav,,,,
v4_BCL_f2,8,1,<?xml version="1.0"?>\n<Clock xmlns:dt="urn:schemas-microsoft-com:datatypes"><Description dt:dt="string">E-Prime Primary Realtime Clock</Description><StartTime><Timestamp dt:dt="int">0</Timestamp><DateUtc dt:dt="string">2014-11-10T21:47:23Z</DateUtc></StartTime><FrequencyChanges><FrequencyChange><Frequency dt:dt="r8">2327510000</Frequency><Timestamp dt:dt="r8">8533084966651</Timestamp><Current dt:dt="r8">0</Current><DateUtc dt:dt="string">2014-11-10T21:47:23Z</DateUtc></FrequencyChange></FrequencyChanges></Clock>\n,v4_BCL_f2-8-1,60.001,1.0.0.226,1,-552327835,2.0.10.242,2.0.10.242,11-10-2014,11/10/2014 9:47:23 PM,16:47:23,2.0.10.147,92,,,,,,38,1,38,,,,2,,,b,,0.249,,,8.52,,,29.58,,,,,,TrialProc1,,,,vowel 1,vowel 2,1,119,338139,Block2,b2_f0_8_52_f2_29_58_dur_0_249_num_339.wav,,,,
v4_BCL_f2,8,1,<?xml version="1.0"?>\n<Clock xmlns:dt="urn:schemas-microsoft-com:datatypes"><Description dt:dt="string">E-Prime Primary Realtime Clock</Description><StartTime><Timestamp dt:dt="int">0</Timestamp><DateUtc dt:dt="string">2014-11-10T21:47:23Z</DateUtc></StartTime><FrequencyChanges><FrequencyChange><Frequency dt:dt="r8">2327510000</Frequency><Timestamp dt:dt="r8">8533084966651</Timestamp><Current dt:dt="r8">0</Current><DateUtc dt:dt="string">2014-11-10T21:47:23Z</DateUtc></FrequencyChange></FrequencyChanges></Clock>\n,v4_BCL_f2-8-1,60.001,1.0.0.226,1,-552327835,2.0.10.242,2.0.10.242,11-10-2014,11/10/2014 9:47:23 PM,16:47:23,2.0.10.147,93,,,,,,39,1,39,,,,2,,,b,,0.253,,,7.7,,,29.77,,,,,,TrialProc1,,,,vowel 1,vowel 2,1,300,339253,Block2,b2_f0_7_70_f2_29_77_dur_0_253_num_354.wav,,,,
v4_BCL_f2,8,1,<?xml version="1.0"?>\n<Clock xmlns:dt="urn:schemas-microsoft-com:datatypes"><Description dt:dt="string">E-Prime Primary Realtime Clock</Description><StartTime><Timestamp dt:dt="int">0</Timestamp><DateUtc dt:dt="string">2014-11-10T21:47:23Z</DateUtc></StartTime><FrequencyChanges><FrequencyChange><Frequency dt:dt="r8">2327510000</Frequency><Timestamp dt:dt="r8">8533084966651</Timestamp><Current dt:dt="r8">0</Current><DateUtc dt:dt="string">2014-11-10T21:47:23Z</DateUtc></FrequencyChange></FrequencyChanges></Clock>\n,v4_BCL_f2-8-1,60.001,1.0.0.226,1,-552327835,2.0.10.242,2.0.10.242,11-10-2014,11/10/2014 9:47:23 PM,16:47:23,2.0.10.147,94,,,,,,40,1,40,,,,1,,,b,,0.25,,,10.42,,,30.1,,,,,,TrialProc1,,,,vowel 1,vowel 2,1,119,340189,Block2,b1_f0_10_42_f2_30_10_dur_0_250_num_12.wav,,,,
v4_BCL_f2,8,1,<?xml version="1.0"?>\n<Clock xmlns:dt="urn:schemas-microsoft-com:datatypes"><Description dt:dt="string">E-Prime Primary Realtime Clock</Description><StartTime><Timestamp dt:dt="int">0</Timestamp><DateUtc dt:dt="string">2014-11-10T21:47:23Z</DateUtc></StartTime><FrequencyChanges><FrequencyChange><Frequency dt:dt="r8">2327510000</Frequency><Timestamp dt:dt="r8">8533084966651</Timestamp><Current dt:dt="r8">0</Current><DateUtc dt:dt="string">2014-11-10T21:47:23Z</DateUtc></FrequencyChange></FrequencyChanges></Clock>\n,v4_BCL_f2-8-1,60.001,1.0.0.226,1,-552327835,2.0.10.242,2.0.10.242,11-10-2014,11/10/2014 9:47:23 PM,16:47:23,2.0.10.147,95,,,,,,41,1,41,,,,1,,,b,,0.242,,,8.93,,,31.73,,,,,,TrialProc1,,,,vowel 1,vowel 2,1,148,341151,Block2,b1_f0_8_93_f2_31_73_dur_0_242_num_53.wav,,,,
v4_BCL_f2,8,1,<?xml version="1.0"?>\n<Clock xmlns:dt="urn:schemas-microsoft-com:datatypes"><Description dt:dt="string">E-Prime Primary Realtime Clock</Description><StartTime><Timestamp dt:dt="int">0</Timestamp><DateUtc dt:dt="string">2014-11-10T21:47:23Z</DateUtc></StartTime><FrequencyChanges><FrequencyChange><Frequency dt:dt="r8">2327510000</Frequency><Timestamp dt:dt="r8">8533084966651</Timestamp><Current dt:dt="r8">0</Current><DateUtc dt:dt="string">2014-11-10T21:47:23Z</DateUtc></FrequencyChange></FrequencyChanges></Clock>\n,v4_BCL_f2-8-1,60.001,1.0.0.226,1,-552327835,2.0.10.242,2.0.10.242,11-10-2014,11/10/2014 9:47:23 PM,16:47:23,2.0.10.147,96,,,,,,42,1,42,,,,2,,,b,,0.252,,,8.87,,,29.39,,,,,,TrialProc1,,,,vowel 1,vowel 2,1,154,342124,Block2,b2_f0_8_87_f2_29_39_dur_0_252_num_383.wav,,,,
v4_BCL_f2,8,1,<?xml version="1.0"?>\n<Clock xmlns:dt="urn:schemas-microsoft-com:datatypes"><Description dt:dt="string">E-Prime Primary Realtime Clock</Description><StartTime><Timestamp dt:dt="int">0</Timestamp><DateUtc dt:dt="string">2014-11-10T21:47:23Z</DateUtc></StartTime><FrequencyChanges><FrequencyChange><Frequency dt:dt="r8">2327510000</Frequency><Timestamp dt:dt="r8">8533084966651</Timestamp><Current dt:dt="r8">0</Current><DateUtc dt:dt="string">2014-11-10T21:47:23Z</DateUtc></FrequencyChange></FrequencyChanges></Clock>\n,v4_BCL_f2-8-1,60.001,1.0.0.226,1,-552327835,2.0.10.242,2.0.10.242,11-10-2014,11/10/2014 9:47:23 PM,16:47:23,2.0.10.147,97,,,,,,43,1,43,,,,2,,,b,,0.254,,,8.84,,,29.38,,,,,,TrialProc1,,,,vowel 1,vowel 2,1,213,343149,Block2,b2_f0_8_84_f2_29_38_dur_0_254_num_313.wav,,,,
v4_BCL_f2,8,1,<?xml version="1.0"?>\n<Clock xmlns:dt="urn:schemas-microsoft-com:datatypes"><Description dt:dt="string">E-Prime Primary Realtime Clock</Description><StartTime><Timestamp dt:dt="int">0</Timestamp><DateUtc dt:dt="string">2014-11-10T21:47:23Z</DateUtc></StartTime><FrequencyChanges><FrequencyChange><Frequency dt:dt="r8">2327510000</Frequency><Timestamp dt:dt="r8">8533084966651</Timestamp><Current dt:dt="r8">0</Current><DateUtc dt:dt="string">2014-11-10T21:47:23Z</DateUtc></FrequencyChange></FrequencyChanges></Clock>\n,v4_BCL_f2-8-1,60.001,1.0.0.226,1,-552327835,2.0.10.242,2.0.10.242,11-10-2014,11/10/2014 9:47:23 PM,16:47:23,2.0.10.147,98,,,,,,44,1,44,,,,2,,,b,,0.246,,,7.55,,,30.28,,,,,,TrialProc1,,,,vowel 1,vowel 2,1,270,344240,Block2,b2_f0_7_55_f2_30_28_dur_0_246_num_380.wav,,,,
v4_BCL_f2,8,1,<?xml version="1.0"?>\n<Clock xmlns:dt="urn:schemas-microsoft-com:datatypes"><Description dt:dt="string">E-Prime Primary Realtime Clock</Description><StartTime><Timestamp dt:dt="int">0</Timestamp><DateUtc dt:dt="string">2014-11-10T21:47:23Z</DateUtc></StartTime><FrequencyChanges><FrequencyChange><Frequency dt:dt="r8">2327510000</Frequency><Timestamp dt:dt="r8">8533084966651</Timestamp><Current dt:dt="r8">0</Current><DateUtc dt:dt="string">2014-11-10T21:47:23Z</DateUtc></FrequencyChange></FrequencyChanges></Clock>\n,v4_BCL_f2-8-1,60.001,1.0.0.226,1,-552327835,2.0.10.242,2.0.10.242,11-10-2014,11/10/2014 9:47:23 PM,16:47:23,2.0.10.147,99,,,,,,45,1,45,,,,2,,,b,,0.248,,,9.06,,,29.26,,,,,,TrialProc1,,,,vowel 1,vowel 2,1,172,345225,Block2,b2_f0_9_06_f2_29_26_dur_0_248_num_371.wav,,,,
v4_BCL_f2,8,1,<?xml version="1.0"?>\n<Clock xmlns:dt="urn:schemas-microsoft-com:datatypes"><Description dt:dt="string">E-Prime Primary Realtime Clock</Description><StartTime><Timestamp dt:dt="int">0</Timestamp><DateUtc dt:dt="string">2014-11-10T21:47:23Z</DateUtc></StartTime><FrequencyChanges><FrequencyChange><Frequency dt:dt="r8">2327510000</Frequency><Timestamp dt:dt="r8">8533084966651</Timestamp><Current dt:dt="r8">0</Current><DateUtc dt:dt="string">2014-11-10T21:47:23Z</DateUtc></FrequencyChange></FrequencyChanges></Clock>\n,v4_BCL_f2-8-1,60.001,1.0.0.226,1,-552327835,2.0.10.242,2.0.10.242,11-10-2014,11/10/2014 9:47:23 PM,16:47:23,2.0.10.147,100,,,,,,46,1,46,,,,2,,,b,,0.25,,,8.47,,,30.08,,,,,,TrialProc1,,,,vowel 1,vowel 2,1,262,346298,Block2,b2_f0_8_47_f2_30_08_dur_0_250_num_358.wav,,,,
v4_BCL_f2,8,1,<?xml version="1.0"?>\n<Clock xmlns:dt="urn:schemas-microsoft-com:datatypes"><Description dt:dt="string">E-Prime Primary Realtime Clock</Description><StartTime><Timestamp dt:dt="int">0</Timestamp><DateUtc dt:dt="string">2014-11-10T21:47:23Z</DateUtc></StartTime><FrequencyChanges><FrequencyChange><Frequency dt:dt="r8">2327510000</Frequency><Timestamp dt:dt="r8">8533084966651</Timestamp><Current dt:dt="r8">0</Current><DateUtc dt:dt="string">2014-11-10T21:47:23Z</DateUtc></FrequencyChange></FrequencyChanges></Clock>\n,v4_BCL_f2-8-1,60.001,1.0.0.226,1,-552327835,2.0.10.242,2.0.10.242,11-10-2014,11/10/2014 9:47:23 PM,16:47:23,2.0.10.147,101,,,,,,47,1,47,,,,1,,,b,,0.249,,,8.94,,,31.78,,,,,,TrialProc1,,,,vowel 1,vowel 2,1,211,347314,Block2,b1_f0_8_94_f2_31_78_dur_0_249_num_75.wav,,,,
v4_BCL_f2,8,1,<?xml version="1.0"?>\n<Clock xmlns:dt="urn:schemas-microsoft-com:datatypes"><Description dt:dt="string">E-Prime Primary Realtime Clock</Description><StartTime><Timestamp dt:dt="int">0</Timestamp><DateUtc dt:dt="string">2014-11-10T21:47:23Z</DateUtc></StartTime><FrequencyChanges><FrequencyChange><Frequency dt:dt="r8">2327510000</Frequency><Timestamp dt:dt="r8">8533084966651</Timestamp><Current dt:dt="r8">0</Current><DateUtc dt:dt="string">2014-11-10T21:47:23Z</DateUtc></FrequencyChange></FrequencyChanges></Clock>\n,v4_BCL_f2-8-1,60.001,1.0.0.226,1,-552327835,2.0.10.242,2.0.10.242,11-10-2014,11/10/2014 9:47:23 PM,16:47:23,2.0.10.147,102,,,,,,48,1,48,,,,2,,,b,,0.251,,,9.18,,,29.51,,,,,,TrialProc1,,,,vowel 1,vowel 2,1,219,348338,Block2,b2_f0_9_18_f2_29_51_dur_0_251_num_391.wav,,,,
v4_BCL_f2,8,1,<?xml version="1.0"?>\n<Clock xmlns:dt="urn:schemas-microsoft-com:datatypes"><Description dt:dt="string">E-Prime Primary Realtime Clock</Description><StartTime><Timestamp dt:dt="int">0</Timestamp><DateUtc dt:dt="string">2014-11-10T21:47:23Z</DateUtc></StartTime><FrequencyChanges><FrequencyChange><Frequency dt:dt="r8">2327510000</Frequency><Timestamp dt:dt="r8">8533084966651</Timestamp><Current dt:dt="r8">0</Current><DateUtc dt:dt="string">2014-11-10T21:47:23Z</DateUtc></FrequencyChange></FrequencyChanges></Clock>\n,v4_BCL_f2-8-1,60.001,1.0.0.226,1,-552327835,2.0.10.242,2.0.10.242,11-10-2014,11/10/2014 9:47:23 PM,16:47:23,2.0.10.147,103,,,,,,49,1,49,,,,1,,,b,,0.251,,,9.17,,,31.17,,,,,,TrialProc1,,,,vowel 1,vowel 2,1,150,349303,Block2,b1_f0_9_17_f2_31_17_dur_0_251_num_27.wav,,,,
v4_BCL_f2,8,1,<?xml version="1.0"?>\n<Clock xmlns:dt="urn:schemas-microsoft-com:datatypes"><Description dt:dt="string">E-Prime Primary Realtime Clock</Description><StartTime><Timestamp dt:dt="int">0</Timestamp><DateUtc dt:dt="string">2014-11-10T21:47:23Z</DateUtc></StartTime><FrequencyChanges><FrequencyChange><Frequency dt:dt="r8">2327510000</Frequency><Timestamp dt:dt="r8">8533084966651</Timestamp><Current dt:dt="r8">0</Current><DateUtc dt:dt="string">2014-11-10T21:47:23Z</DateUtc></FrequencyChange></FrequencyChanges></Clock>\n,v4_BCL_f2-8-1,60.001,1.0.0.226,1,-552327835,2.0.10.242,2.0.10.242,11-10-2014,11/10/2014 9:47:23 PM,16:47:23,2.0.10.147,104,,,,,,50,1,50,,,,2,,,b,,0.249,,,9.37,,,28.78,,,,,,TrialProc1,,,,vowel 1,vowel 2,1,224,350343,Block2,b2_f0_9_37_f2_28_78_dur_0_249_num_388.wav,,,,
v4_BCL_f2,8,1,<?xml version="1.0"?>\n<Clock xmlns:dt="urn:schemas-microsoft-com:datatypes"><Description dt:dt="string">E-Prime Primary Realtime Clock</Description><StartTime><Timestamp dt:dt="int">0</Timestamp><DateUtc dt:dt="string">2014-11-10T21:47:23Z</DateUtc></StartTime><FrequencyChanges><FrequencyChange><Frequency dt:dt="r8">2327510000</Frequency><Timestamp dt:dt="r8">8533084966651</Timestamp><Current dt:dt="r8">0</Current><DateUtc dt:dt="string">2014-11-10T21:47:23Z</DateUtc></FrequencyChange></FrequencyChanges></Clock>\n,v4_BCL_f2-8-1,60.001,1.0.0.226,1,-552327835,2.0.10.242,2.0.10.242,11-10-2014,11/10/2014 9:47:23 PM,16:47:23,2.0.10.147,105,,,,,,51,1,51,,,,1,,,b,,0.251,,,8.14,,,31.75,,,,,,TrialProc1,,,,vowel 1,vowel 2,,0,0,Block2,b1_f0_8_14_f2_31_75_dur_0_251_num_88.wav,,,,
v4_BCL_f2,8,1,<?xml version="1.0"?>\n<Clock xmlns:dt="urn:schemas-microsoft-com:datatypes"><Description dt:dt="string">E-Prime Primary Realtime Clock</Description><StartTime><Timestamp dt:dt="int">0</Timestamp><DateUtc dt:dt="string">2014-11-10T21:47:23Z</DateUtc></StartTime><FrequencyChanges><FrequencyChange><Frequency dt:dt="r8">2327510000</Frequency><Timestamp dt:dt="r8">8533084966651</Timestamp><Current dt:dt="r8">0</Current><DateUtc dt:dt="string">2014-11-10T21:47:23Z</DateUtc></FrequencyChange></FrequencyChanges></Clock>\n,v4_BCL_f2-8-1,60.001,1.0.0.226,1,-552327835,2.0.10.242,2.0.10.242,11-10-2014,11/10/2014 9:47:23 PM,16:47:23,2.0.10.147,106,,,,,,52,1,52,,,,1,,,b,,0.251,,,9.43,,,31.48,,,,,,TrialProc1,,,,vowel 1,vowel 2,,0,0,Block2,b1_f0_9_43_f2_31_48_dur_0_251_num_62.wav,,,,
v4_BCL_f2,8,1,<?xml version="1.0"?>\n<Clock xmlns:dt="urn:schemas-microsoft-com:datatypes"><Description dt:dt="string">E-Prime Primary Realtime Clock</Description><StartTime><Timestamp dt:dt="int">0</Timestamp><DateUtc dt:dt="string">2014-11-10T21:47:23Z</DateUtc></StartTime><FrequencyChanges><FrequencyChange><Frequency dt:dt="r8">2327510000</Frequency><Timestamp dt:dt="r8">8533084966651</Timestamp><Current dt:dt="r8">0</Current><DateUtc dt:dt="string">2014-11-10T21:47:23Z</DateUtc></FrequencyChange></FrequencyChanges></Clock>\n,v4_BCL_f2-8-1,60.001,1.0.0.226,1,-552327835,2.0.10.242,2.0.10.242,11-10-2014,11/10/2014 9:47:23 PM,16:47:23,2.0.10.147,107,,,,,,53,1,53,,,,1,,,b,,0.255,,,10.22,,,30.49,,,,,,TrialProc1,,,,vowel 1,vowel 2,1,494,356247,Block2,b1_f0_10_22_f2_30_49_dur_0_255_num_14.wav,,,,
v4_BCL_f2,8,1,<?xml version="1.0"?>\n<Clock xmlns:dt="urn:schemas-microsoft-com:datatypes"><Description dt:dt="string">E-Prime Primary Realtime Clock</Description><StartTime><Timestamp dt:dt="int">0</Timestamp><DateUtc dt:dt="string">2014-11-10T21:47:23Z</DateUtc></StartTime><FrequencyChanges><FrequencyChange><Frequency dt:dt="r8">2327510000</Frequency><Timestamp dt:dt="r8">8533084966651</Timestamp><Current dt:dt="r8">0</Current><DateUtc dt:dt="string">2014-11-10T21:47:23Z</DateUtc></FrequencyChange></FrequencyChanges></Clock>\n,v4_BCL_f2-8-1,60.001,1.0.0.226,1,-552327835,2.0.10.242,2.0.10.242,11-10-2014,11/10/2014 9:47:23 PM,16:47:23,2.0.10.147,108,,,,,,54,1,54,,,,1,,,b,,0.249,,,9.86,,,30.96,,,,,,TrialProc1,,,,vowel 1,vowel 2,1,118,357187,Block2,b1_f0_9_86_f2_30_96_dur_0_249_num_56.wav,,,,
v4_BCL_f2,8,1,<?xml version="1.0"?>\n<Clock xmlns:dt="urn:schemas-microsoft-com:datatypes"><Description dt:dt="string">E-Prime Primary Realtime Clock</Description><StartTime><Timestamp dt:dt="int">0</Timestamp><DateUtc dt:dt="string">2014-11-10T21:47:23Z</DateUtc></StartTime><FrequencyChanges><FrequencyChange><Frequency dt:dt="r8">2327510000</Frequency><Timestamp dt:dt="r8">8533084966651</Timestamp><Current dt:dt="r8">0</Current><DateUtc dt:dt="string">2014-11-10T21:47:23Z</DateUtc></FrequencyChange></FrequencyChanges></Clock>\n,v4_BCL_f2-8-1,60.001,1.0.0.226,1,-552327835,2.0.10.242,2.0.10.242,11-10-2014,11/10/2014 9:47:23 PM,16:47:23,2.0.10.147,109,,,,,,55,1,55,,,,2,,,b,,0.254,,,9.25,,,29.24,,,,,,TrialProc1,,,,vowel 1,vowel 2,2,500,358503,Block2,b2_f0_9_25_f2_29_24_dur_0_254_num_387.wav,,,,
v4_BCL_f2,8,1,<?xml version="1.0"?>\n<Clock xmlns:dt="urn:schemas-microsoft-com:datatypes"><Description dt:dt="string">E-Prime Primary Realtime Clock</Description><StartTime><Timestamp dt:dt="int">0</Timestamp><DateUtc dt:dt="string">2014-11-10T21:47:23Z</DateUtc></StartTime><FrequencyChanges><FrequencyChange><Frequency dt:dt="r8">2327510000</Frequency><Timestamp dt:dt="r8">8533084966651</Timestamp><Current dt:dt="r8">0</Current><DateUtc dt:dt="string">2014-11-10T21:47:23Z</DateUtc></FrequencyChange></FrequencyChanges></Clock>\n,v4_BCL_f2-8-1,60.001,1.0.0.226,1,-552327835,2.0.10.242,2.0.10.242,11-10-2014,11/10/2014 9:47:23 PM,16:47:23,2.0.10.147,110,,,,,,56,1,56,,,,1,,,b,,0.247,,,9.21,,,31.12,,,,,,TrialProc1,,,,vowel 1,vowel 2,2,432,359751,Block2,b1_f0_9_21_f2_31_12_dur_0_247_num_93.wav,,,,
v4_BCL_f2,8,1,<?xml version="1.0"?>\n<Clock xmlns:dt="urn:schemas-microsoft-com:datatypes"><Description dt:dt="string">E-Prime Primary Realtime Clock</Description><StartTime><Timestamp dt:dt="int">0</Timestamp><DateUtc dt:dt="string">2014-11-10T21:47:23Z</DateUtc></StartTime><FrequencyChanges><FrequencyChange><Frequency dt:dt="r8">2327510000</Frequency><Timestamp dt:dt="r8">8533084966651</Timestamp><Current dt:dt="r8">0</Current><DateUtc dt:dt="string">2014-11-10T21:47:23Z</DateUtc></FrequencyChange></FrequencyChanges></Clock>\n,v4_BCL_f2-8-1,60.001,1.0.0.226,1,-552327835,2.0.10.242,2.0.10.242,11-10-2014,11/10/2014 9:47:23 PM,16:47:23,2.0.10.147,111,,,,,,57,1,57,,,,1,,,b,,0.246,,,8.89,,,31.51,,,,,,TrialProc1,,,,vowel 1,vowel 2,2,318,360871,Block2,b1_f0_8_89_f2_31_51_dur_0_246_num_40.wav,,,,
v4_BCL_f2,8,1,<?xml version="1.0"?>\n<Clock xmlns:dt="urn:schemas-microsoft-com:datatypes"><Description dt:dt="string">E-Prime Primary Realtime Clock</Description><StartTime><Timestamp dt:dt="int">0</Timestamp><DateUtc dt:dt="string">2014-11-10T21:47:23Z</DateUtc></StartTime><FrequencyChanges><FrequencyChange><Frequency dt:dt="r8">2327510000</Frequency><Timestamp dt:dt="r8">8533084966651</Timestamp><Current dt:dt="r8">0</Current><DateUtc dt:dt="string">2014-11-10T21:47:23Z</DateUtc></FrequencyChange></FrequencyChanges></Clock>\n,v4_BCL_f2-8-1,60.001,1.0.0.226,1,-552327835,2.0.10.242,2.0.10.242,11-10-2014,11/10/2014 9:47:23 PM,16:47:23,2.0.10.147,112,,,,,,58,1,58,,,,2,,,b,,0.249,,,9.61,,,29.36,,,,,,TrialProc1,,,,vowel 1,vowel 2,1,335,362021,Block2,b2_f0_9_61_f2_29_36_dur_0_249_num_359.wav,,,,
v4_BCL_f2,8,1,<?xml version="1.0"?>\n<Clock xmlns:dt="urn:schemas-microsoft-com:datatypes"><Description dt:dt="string">E-Prime Primary Realtime Clock</Description><StartTime><Timestamp dt:dt="int">0</Timestamp><DateUtc dt:dt="string">2014-11-10T21:47:23Z</DateUtc></StartTime><FrequencyChanges><FrequencyChange><Frequency dt:dt="r8">2327510000</Frequency><Timestamp dt:dt="r8">8533084966651</Timestamp><Current dt:dt="r8">0</Current><DateUtc dt:dt="string">2014-11-10T21:47:23Z</DateUtc></FrequencyChange></FrequencyChanges></Clock>\n,v4_BCL_f2-8-1,60.001,1.0.0.226,1,-552327835,2.0.10.242,2.0.10.242,11-10-2014,11/10/2014 9:47:23 PM,16:47:23,2.0.10.147,113,,,,,,59,1,59,,,,2,,,b,,0.249,,,9.48,,,29.69,,,,,,TrialProc1,,,,vowel 1,vowel 2,1,268,363104,Block2,b2_f0_9_48_f2_29_69_dur_0_249_num_337.wav,,,,
v4_BCL_f2,8,1,<?xml version="1.0"?>\n<Clock xmlns:dt="urn:schemas-microsoft-com:datatypes"><Description dt:dt="string">E-Prime Primary Realtime Clock</Description><StartTime><Timestamp dt:dt="int">0</Timestamp><DateUtc dt:dt="string">2014-11-10T21:47:23Z</DateUtc></StartTime><FrequencyChanges><FrequencyChange><Frequency dt:dt="r8">2327510000</Frequency><Timestamp dt:dt="r8">8533084966651</Timestamp><Current dt:dt="r8">0</Current><DateUtc dt:dt="string">2014-11-10T21:47:23Z</DateUtc></FrequencyChange></FrequencyChanges></Clock>\n,v4_BCL_f2-8-1,60.001,1.0.0.226,1,-552327835,2.0.10.242,2.0.10.242,11-10-2014,11/10/2014 9:47:23 PM,16:47:23,2.0.10.147,114,,,,,,60,1,60,,,,1,,,b,,0.251,,,8.64,,,31.86,,,,,,TrialProc1,,,,vowel 1,vowel 2,2,189,364108,Block2,b1_f0_8_64_f2_31_86_dur_0_251_num_9.wav,,,,
v4_BCL_f2,8,1,<?xml version="1.0"?>\n<Clock xmlns:dt="urn:schemas-microsoft-com:datatypes"><Description dt:dt="string">E-Prime Primary Realtime Clock</Description><StartTime><Timestamp dt:dt="int">0</Timestamp><DateUtc dt:dt="string">2014-11-10T21:47:23Z</DateUtc></StartTime><FrequencyChanges><FrequencyChange><Frequency dt:dt="r8">2327510000</Frequency><Timestamp dt:dt="r8">8533084966651</Timestamp><Current dt:dt="r8">0</Current><DateUtc dt:dt="string">2014-11-10T21:47:23Z</DateUtc></FrequencyChange></FrequencyChanges></Clock>\n,v4_BCL_f2-8-1,60.001,1.0.0.226,1,-552327835,2.0.10.242,2.0.10.242,11-10-2014,11/10/2014 9:47:23 PM,16:47:23,2.0.10.147,115,,,,,,61,1,61,,,,2,,,b,,0.247,,,8.33,,,29.43,,,,,,TrialProc1,,,,vowel 1,vowel 2,2,250,365169,Block2,b2_f0_8_33_f2_29_43_dur_0_247_num_365.wav,,,,
v4_BCL_f2,8,1,<?xml version="1.0"?>\n<Clock xmlns:dt="urn:schemas-microsoft-com:datatypes"><Description dt:dt="string">E-Prime Primary Realtime Clock</Description><StartTime><Timestamp dt:dt="int">0</Timestamp><DateUtc dt:dt="string">2014-11-10T21:47:23Z</DateUtc></StartTime><FrequencyChanges><FrequencyChange><Frequency dt:dt="r8">2327510000</Frequency><Timestamp dt:dt="r8">8533084966651</Timestamp><Current dt:dt="r8">0</Current><DateUtc dt:dt="string">2014-11-10T21:47:23Z</DateUtc></FrequencyChange></FrequencyChanges></Clock>\n,v4_BCL_f2-8-1,60.001,1.0.0.226,1,-552327835,2.0.10.242,2.0.10.242,11-10-2014,11/10/2014 9:47:23 PM,16:47:23,2.0.10.147,116,,,,,,62,1,62,,,,1,,,b,,0.255,,,8.67,,,31.79,,,,,,TrialProc1,,,,vowel 1,vowel 2,2,489,366475,Block2,b1_f0_8_67_f2_31_79_dur_0_255_num_45.wav,,,,
v4_BCL_f2,8,1,<?xml version="1.0"?>\n<Clock xmlns:dt="urn:schemas-microsoft-com:datatypes"><Description dt:dt="string">E-Prime Primary Realtime Clock</Description><StartTime><Timestamp dt:dt="int">0</Timestamp><DateUtc dt:dt="string">2014-11-10T21:47:23Z</DateUtc></StartTime><FrequencyChanges><FrequencyChange><Frequency dt:dt="r8">2327510000</Frequency><Timestamp dt:dt="r8">8533084966651</Timestamp><Current dt:dt="r8">0</Current><DateUtc dt:dt="string">2014-11-10T21:47:23Z</DateUtc></FrequencyChange></FrequencyChanges></Clock>\n,v4_BCL_f2-8-1,60.001,1.0.0.226,1,-552327835,2.0.10.242,2.0.10.242,11-10-2014,11/10/2014 9:47:23 PM,16:47:23,2.0.10.147,117,,,,,,63,1,63,,,,1,,,b,,0.252,,,8.31,,,31.09,,,,,,TrialProc1,,,,vowel 1,vowel 2,2,319,367605,Block2,b1_f0_8_31_f2_31_09_dur_0_252_num_48.wav,,,,
v4_BCL_f2,8,1,<?xml version="1.0"?>\n<Clock xmlns:dt="urn:schemas-microsoft-com:datatypes"><Description dt:dt="string">E-Prime Primary Realtime Clock</Description><StartTime><Timestamp dt:dt="int">0</Timestamp><DateUtc dt:dt="string">2014-11-10T21:47:23Z</DateUtc></StartTime><FrequencyChanges><FrequencyChange><Frequency dt:dt="r8">2327510000</Frequency><Timestamp dt:dt="r8">8533084966651</Timestamp><Current dt:dt="r8">0</Current><DateUtc dt:dt="string">2014-11-10T21:47:23Z</DateUtc></FrequencyChange></FrequencyChanges></Clock>\n,v4_BCL_f2-8-1,60.001,1.0.0.226,1,-552327835,2.0.10.242,2.0.10.242,11-10-2014,11/10/2014 9:47:23 PM,16:47:23,2.0.10.147,118,,,,,,64,1,64,,,,2,,,b,,0.249,,,8.42,,,29.67,,,,,,TrialProc1,,,,vowel 1,vowel 2,2,284,368703,Block2,b2_f0_8_42_f2_29_67_dur_0_249_num_309.wav,,,,
v4_BCL_f2,8,1,<?xml version="1.0"?>\n<Clock xmlns:dt="urn:schemas-microsoft-com:datatypes"><Description dt:dt="string">E-Prime Primary Realtime Clock</Description><StartTime><Timestamp dt:dt="int">0</Timestamp><DateUtc dt:dt="string">2014-11-10T21:47:23Z</DateUtc></StartTime><FrequencyChanges><FrequencyChange><Frequency dt:dt="r8">2327510000</Frequency><Timestamp dt:dt="r8">8533084966651</Timestamp><Current dt:dt="r8">0</Current><DateUtc dt:dt="string">2014-11-10T21:47:23Z</DateUtc></FrequencyChange></FrequencyChanges></Clock>\n,v4_BCL_f2-8-1,60.001,1.0.0.226,1,-552327835,2.0.10.242,2.0.10.242,11-10-2014,11/10/2014 9:47:23 PM,16:47:23,2.0.10.147,119,,,,,,65,1,65,,,,2,,,b,,0.248,,,9.62,,,28.94,,,,,,TrialProc1,,,,vowel 1,vowel 2,1,813,370332,Block2,b2_f0_9_62_f2_28_94_dur_0_248_num_334.wav,,,,
v4_BCL_f2,8,1,<?xml version="1.0"?>\n<Clock xmlns:dt="urn:schemas-microsoft-com:datatypes"><Description dt:dt="string">E-Prime Primary Realtime Clock</Description><StartTime><Timestamp dt:dt="int">0</Timestamp><DateUtc dt:dt="string">2014-11-10T21:47:23Z</DateUtc></StartTime><FrequencyChanges><FrequencyChange><Frequency dt:dt="r8">2327510000</Frequency><Timestamp dt:dt="r8">8533084966651</Timestamp><Current dt:dt="r8">0</Current><DateUtc dt:dt="string">2014-11-10T21:47:23Z</DateUtc></FrequencyChange></FrequencyChanges></Clock>\n,v4_BCL_f2-8-1,60.001,1.0.0.226,1,-552327835,2.0.10.242,2.0.10.242,11-10-2014,11/10/2014 9:47:23 PM,16:47:23,2.0.10.147,120,,,,,,66,1,66,,,,1,,,b,,0.255,,,9.56,,,30.04,,,,,,TrialProc1,,,,vowel 1,vowel 2,1,381,371517,Block2,b1_f0_9_56_f2_30_04_dur_0_255_num_38.wav,,,,
v4_BCL_f2,8,1,<?xml version="1.0"?>\n<Clock xmlns:dt="urn:schemas-microsoft-com:datatypes"><Description dt:dt="string">E-Prime Primary Realtime Clock</Description><StartTime><Timestamp dt:dt="int">0</Timestamp><DateUtc dt:dt="string">2014-11-10T21:47:23Z</DateUtc></StartTime><FrequencyChanges><FrequencyChange><Frequency dt:dt="r8">2327510000</Frequency><Timestamp dt:dt="r8">8533084966651</Timestamp><Current dt:dt="r8">0</Current><DateUtc dt:dt="string">2014-11-10T21:47:23Z</DateUtc></FrequencyChange></FrequencyChanges></Clock>\n,v4_BCL_f2-8-1,60.001,1.0.0.226,1,-552327835,2.0.10.242,2.0.10.242,11-10-2014,11/10/2014 9:47:23 PM,16:47:23,2.0.10.147,121,,,,,,67,1,67,,,,1,,,b,,0.243,,,9.83,,,30.01,,,,,,TrialProc1,,,,vowel 1,vowel 2,1,245,372581,Block2,b1_f0_9_83_f2_30_01_dur_0_243_num_80.wav,,,,
v4_BCL_f2,8,1,<?xml version="1.0"?>\n<Clock xmlns:dt="urn:schemas-microsoft-com:datatypes"><Description dt:dt="string">E-Prime Primary Realtime Clock</Description><StartTime><Timestamp dt:dt="int">0</Timestamp><DateUtc dt:dt="string">2014-11-10T21:47:23Z</DateUtc></StartTime><FrequencyChanges><FrequencyChange><Frequency dt:dt="r8">2327510000</Frequency><Timestamp dt:dt="r8">8533084966651</Timestamp><Current dt:dt="r8">0</Current><DateUtc dt:dt="string">2014-11-10T21:47:23Z</DateUtc></FrequencyChange></FrequencyChanges></Clock>\n,v4_BCL_f2-8-1,60.001,1.0.0.226,1,-552327835,2.0.10.242,2.0.10.242,11-10-2014,11/10/2014 9:47:23 PM,16:47:23,2.0.10.147,122,,,,,,68,1,68,,,,2,,,b,,0.251,,,10.24,,,29.11,,,,,,TrialProc1,,,,vowel 1,vowel 2,1,175,373578,Block2,b2_f0_10_24_f2_29_11_dur_0_251_num_390.wav,,,,
v4_BCL_f2,8,1,<?xml version="1.0"?>\n<Clock xmlns:dt="urn:schemas-microsoft-com:datatypes"><Description dt:dt="string">E-Prime Primary Realtime Clock</Description><StartTime><Timestamp dt:dt="int">0</Timestamp><DateUtc dt:dt="string">2014-11-10T21:47:23Z</DateUtc></StartTime><FrequencyChanges><FrequencyChange><Frequency dt:dt="r8">2327510000</Frequency><Timestamp dt:dt="r8">8533084966651</Timestamp><Current dt:dt="r8">0</Current><DateUtc dt:dt="string">2014-11-10T21:47:23Z</DateUtc></FrequencyChange></FrequencyChanges></Clock>\n,v4_BCL_f2-8-1,60.001,1.0.0.226,1,-552327835,2.0.10.242,2.0.10.242,11-10-2014,11/10/2014 9:47:23 PM,16:47:23,2.0.10.147,123,,,,,,69,1,69,,,,2,,,b,,0.25,,,8.48,,,30.08,,,,,,TrialProc1,,,,vowel 1,vowel 2,2,428,374814,Block2,b2_f0_8_48_f2_30_08_dur_0_250_num_310.wav,,,,
v4_BCL_f2,8,1,<?xml version="1.0"?>\n<Clock xmlns:dt="urn:schemas-microsoft-com:datatypes"><Description dt:dt="string">E-Prime Primary Realtime Clock</Description><StartTime><Timestamp dt:dt="int">0</Timestamp><DateUtc dt:dt="string">2014-11-10T21:47:23Z</DateUtc></StartTime><FrequencyChanges><FrequencyChange><Frequency dt:dt="r8">2327510000</Frequency><Timestamp dt:dt="r8">8533084966651</Timestamp><Current dt:dt="r8">0</Current><DateUtc dt:dt="string">2014-11-10T21:47:23Z</DateUtc></FrequencyChange></FrequencyChanges></Clock>\n,v4_BCL_f2-8-1,60.001,1.0.0.226,1,-552327835,2.0.10.242,2.0.10.242,11-10-2014,11/10/2014 9:47:23 PM,16:47:23,2.0.10.147,124,,,,,,70,1,70,,,,2,,,b,,0.255,,,8.46,,,30.04,,,,,,TrialProc1,,,,vowel 1,vowel 2,2,650,376269,Block2,b2_f0_8_46_f2_30_04_dur_0_255_num_397.wav,,,,
v4_BCL_f2,8,1,<?xml version="1.0"?>\n<Clock xmlns:dt="urn:schemas-microsoft-com:datatypes"><Description dt:dt="string">E-Prime Primary Realtime Clock</Description><StartTime><Timestamp dt:dt="int">0</Timestamp><DateUtc dt:dt="string">2014-11-10T21:47:23Z</DateUtc></StartTime><FrequencyChanges><FrequencyChange><Frequency dt:dt="r8">2327510000</Frequency><Timestamp dt:dt="r8">8533084966651</Timestamp><Current dt:dt="r8">0</Current><DateUtc dt:dt="string">2014-11-10T21:47:23Z</DateUtc></FrequencyChange></FrequencyChanges></Clock>\n,v4_BCL_f2-8-1,60.001,1.0.0.226,1,-552327835,2.0.10.242,2.0.10.242,11-10-2014,11/10/2014 9:47:23 PM,16:47:23,2.0.10.147,125,,,,,,71,1,71,,,,1,,,b,,0.249,,,8.08,,,31.33,,,,,,TrialProc1,,,,vowel 1,vowel 2,2,411,377497,Block2,b1_f0_8_08_f2_31_33_dur_0_249_num_4.wav,,,,
