ExperimentName,Subject,Session,Clock.Information,DataFile.Basename,Display.RefreshRate,ExperimentVersion,Group,RandomSeed,RuntimeVersion,RuntimeVersionExpected,SessionDate,SessionStartDateTimeUtc,SessionTime,StudioVersion,Block,A,B,Block1,Block1.Cycle,Block1.Sample,Block2,Block2.Cycle,Block2.Sample,Block3,Block3.Cycle,Block3.Sample,cat,catA,catB,cons,correct_resp,dur,durA,durB,f0,f0A,f0B,f2,f2A,f2B,PracticeList,PracticeList.Cycle,PracticeList.Sample,Procedure,resp.CRESP,resp.RESP,resp.RT,resp1,resp2,respond.RESP,respond.RT,respond.RTTime,Running,soundfile,testList,testList.Cycle,testList.Sample,X
v4_BCL_f2_g,10,1,<?xml version="1.0"?>\n<Clock xmlns:dt="urn:schemas-microsoft-com:datatypes"><Description dt:dt="string">E-Prime Primary Realtime Clock</Description><StartTime><Timestamp dt:dt="int">0</Timestamp><DateUtc dt:dt="string">2014-12-11T16:45:22Z</DateUtc></StartTime><FrequencyChanges><FrequencyChange><Frequency dt:dt="r8">2327510000</Frequency><Timestamp dt:dt="r8">256619635300</Timestamp><Current dt:dt="r8">0</Current><DateUtc dt:dt="string">2014-12-11T16:45:22Z</DateUtc></FrequencyChange></FrequencyChanges></Clock>\n,v4_BCL_f2_g-10-1,60.001,1.0.0.236,1,-607676302,2.0.10.242,2.0.10.242,12-11-2014,12/11/2014 4:45:22 PM,11:45:22,2.0.10.147,1,,,,,,,,,,,,NA,,,NA,,NA,,,NA,,,NA,,,5,1,1,PracProc,,,,vowel 1,vowel 2,,0,0,PracticeList,see.wav,,,,
v4_BCL_f2_g,10,1,<?xml version="1.0"?>\n<Clock xmlns:dt="urn:schemas-microsoft-com:datatypes"><Description dt:dt="string">E-Prime Primary Realtime Clock</Description><StartTime><Timestamp dt:dt="int">0</Timestamp><DateUtc dt:dt="string">2014-12-11T16:45:22Z</DateUtc></StartTime><FrequencyChanges><FrequencyChange><Frequency dt:dt="r8">2327510000</Frequency><Timestamp dt:dt="r8">256619635300</Timestamp><Current dt:dt="r8">0</Current><DateUtc dt:dt="string">2014-12-11T16:45:22Z</DateUtc></FrequencyChange></FrequencyChanges></Clock>\n,v4_BCL_f2_g-10-1,60.001,1.0.0.236,1,-607676302,2.0.10.242,2.0.10.242,12-11-2014,12/11/2014 4:45:22 PM,11:45:22,2.0.10.147,2,,,,,,,,,,,,NA,,,NA,,NA,,,NA,,,NA,,,3,1,2,PracProc,,,,vowel 1,vowel 2,,0,0,PracticeList,tea.wav,,,,
v4_BCL_f2_g,10,1,<?xml version="1.0"?>\n<Clock xmlns:dt="urn:schemas-microsoft-com:datatypes"><Description dt:dt="string">E-Prime Primary Realtime Clock</Description><StartTime><Timestamp dt:dt="int">0</Timestamp><DateUtc dt:dt="string">2014-12-11T16:45:22Z</DateUtc></StartTime><FrequencyChanges><FrequencyChange><Frequency dt:dt="r8">2327510000</Frequency><Timestamp dt:dt="r8">256619635300</Timestamp><Current dt:dt="r8">0</Current><DateUtc dt:dt="string">2014-12-11T16:45:22Z</DateUtc></FrequencyChange></FrequencyChanges></Clock>\n,v4_BCL_f2_g-10-1,60.001,1.0.0.236,1,-607676302,2.0.10.242,2.0.10.242,12-11-2014,12/11/2014 4:45:22 PM,11:45:22,2.0.10.147,3,,,,,,,,,,,,NA,,,NA,,NA,,,NA,,,NA,,,4,1,3,PracProc,,,,vowel 1,vowel 2,,0,0,PracticeList,tay.wav,,,,
v4_BCL_f2_g,10,1,<?xml version="1.0"?>\n<Clock xmlns:dt="urn:schemas-microsoft-com:datatypes"><Description dt:dt="string">E-Prime Primary Realtime Clock</Description><StartTime><Timestamp dt:dt="int">0</Timestamp><DateUtc dt:dt="string">2014-12-11T16:45:22Z</DateUtc></StartTime><FrequencyChanges><FrequencyChange><Frequency dt:dt="r8">2327510000</Frequency><Timestamp dt:dt="r8">256619635300</Timestamp><Current dt:dt="r8">0</Current><DateUtc dt:dt="string">2014-12-11T16:45:22Z</DateUtc></FrequencyChange></FrequencyChanges></Clock>\n,v4_BCL_f2_g-10-1,60.001,1.0.0.236,1,-607676302,2.0.10.242,2.0.10.242,12-11-2014,12/11/2014 4:45:22 PM,11:45:22,2.0.10.147,4,,,,,,,,,,,,NA,,,NA,,NA,,,NA,,,NA,,,2,1,4,PracProc,,,,vowel 1,vowel 2,,0,0,PracticeList,kay.wav,,,,
v4_BCL_f2_g,10,1,<?xml version="1.0"?>\n<Clock xmlns:dt="urn:schemas-microsoft-com:datatypes"><Description dt:dt="string">E-Prime Primary Realtime Clock</Description><StartTime><Timestamp dt:dt="int">0</Timestamp><DateUtc dt:dt="string">2014-12-11T16:45:22Z</DateUtc></StartTime><FrequencyChanges><FrequencyChange><Frequency dt:dt="r8">2327510000</Frequency><Timestamp dt:dt="r8">256619635300</Timestamp><Current dt:dt="r8">0</Current><DateUtc dt:dt="string">2014-12-11T16:45:22Z</DateUtc></FrequencyChange></FrequencyChanges></Clock>\n,v4_BCL_f2_g-10-1,60.001,1.0.0.236,1,-607676302,2.0.10.242,2.0.10.242,12-11-2014,12/11/2014 4:45:22 PM,11:45:22,2.0.10.147,5,,,,,,,,,,,,NA,,,NA,,NA,,,NA,,,NA,,,1,1,5,PracProc,,,,vowel 1,vowel 2,,0,0,PracticeList,key.wav,,,,
v4_BCL_f2_g,10,1,<?xml version="1.0"?>\n<Clock xmlns:dt="urn:schemas-microsoft-com:datatypes"><Description dt:dt="string">E-Prime Primary Realtime Clock</Description><StartTime><Timestamp dt:dt="int">0</Timestamp><DateUtc dt:dt="string">2014-12-11T16:45:22Z</DateUtc></StartTime><FrequencyChanges><FrequencyChange><Frequency dt:dt="r8">2327510000</Frequency><Timestamp dt:dt="r8">256619635300</Timestamp><Current dt:dt="r8">0</Current><DateUtc dt:dt="string">2014-12-11T16:45:22Z</DateUtc></FrequencyChange></FrequencyChanges></Clock>\n,v4_BCL_f2_g-10-1,60.001,1.0.0.236,1,-607676302,2.0.10.242,2.0.10.242,12-11-2014,12/11/2014 4:45:22 PM,11:45:22,2.0.10.147,6,,,,,,,,,,,,NA,,,NA,,NA,,,NA,,,NA,,,6,1,6,PracProc,,,,vowel 1,vowel 2,,0,0,PracticeList,say.wav,,,,
v4_BCL_f2_g,10,1,<?xml version="1.0"?>\n<Clock xmlns:dt="urn:schemas-microsoft-com:datatypes"><Description dt:dt="string">E-Prime Primary Realtime Clock</Description><StartTime><Timestamp dt:dt="int">0</Timestamp><DateUtc dt:dt="string">2014-12-11T16:45:22Z</DateUtc></StartTime><FrequencyChanges><FrequencyChange><Frequency dt:dt="r8">2327510000</Frequency><Timestamp dt:dt="r8">256619635300</Timestamp><Current dt:dt="r8">0</Current><DateUtc dt:dt="string">2014-12-11T16:45:22Z</DateUtc></FrequencyChange></FrequencyChanges></Clock>\n,v4_BCL_f2_g-10-1,60.001,1.0.0.236,1,-607676302,2.0.10.242,2.0.10.242,12-11-2014,12/11/2014 4:45:22 PM,11:45:22,2.0.10.147,7,,,,,,,,,,,,NA,,,NA,,NA,,,NA,,,NA,,,3,2,7,PracProc,,,,vowel 1,vowel 2,,0,0,PracticeList,tea.wav,,,,
v4_BCL_f2_g,10,1,<?xml version="1.0"?>\n<Clock xmlns:dt="urn:schemas-microsoft-com:datatypes"><Description dt:dt="string">E-Prime Primary Realtime Clock</Description><StartTime><Timestamp dt:dt="int">0</Timestamp><DateUtc dt:dt="string">2014-12-11T16:45:22Z</DateUtc></StartTime><FrequencyChanges><FrequencyChange><Frequency dt:dt="r8">2327510000</Frequency><Timestamp dt:dt="r8">256619635300</Timestamp><Current dt:dt="r8">0</Current><DateUtc dt:dt="string">2014-12-11T16:45:22Z</DateUtc></FrequencyChange></FrequencyChanges></Clock>\n,v4_BCL_f2_g-10-1,60.001,1.0.0.236,1,-607676302,2.0.10.242,2.0.10.242,12-11-2014,12/11/2014 4:45:22 PM,11:45:22,2.0.10.147,8,,,,,,,,,,,,NA,,,NA,,NA,,,NA,,,NA,,,5,2,8,PracProc,,,,vowel 1,vowel 2,,0,0,PracticeList,see.wav,,,,
v4_BCL_f2_g,10,1,<?xml version="1.0"?>\n<Clock xmlns:dt="urn:schemas-microsoft-com:datatypes"><Description dt:dt="string">E-Prime Primary Realtime Clock</Description><StartTime><Timestamp dt:dt="int">0</Timestamp><DateUtc dt:dt="string">2014-12-11T16:45:22Z</DateUtc></StartTime><FrequencyChanges><FrequencyChange><Frequency dt:dt="r8">2327510000</Frequency><Timestamp dt:dt="r8">256619635300</Timestamp><Current dt:dt="r8">0</Current><DateUtc dt:dt="string">2014-12-11T16:45:22Z</DateUtc></FrequencyChange></FrequencyChanges></Clock>\n,v4_BCL_f2_g-10-1,60.001,1.0.0.236,1,-607676302,2.0.10.242,2.0.10.242,12-11-2014,12/11/2014 4:45:22 PM,11:45:22,2.0.10.147,9,,,,,,,,,,,,NA,,,NA,,NA,,,NA,,,NA,,,2,2,9,PracProc,,,,vowel 1,vowel 2,,0,0,PracticeList,kay.wav,,,,
v4_BCL_f2_g,10,1,<?xml version="1.0"?>\n<Clock xmlns:dt="urn:schemas-microsoft-com:datatypes"><Description dt:dt="string">E-Prime Primary Realtime Clock</Description><StartTime><Timestamp dt:dt="int">0</Timestamp><DateUtc dt:dt="string">2014-12-11T16:45:22Z</DateUtc></StartTime><FrequencyChanges><FrequencyChange><Frequency dt:dt="r8">2327510000</Frequency><Timestamp dt:dt="r8">256619635300</Timestamp><Current dt:dt="r8">0</Current><DateUtc dt:dt="string">2014-12-11T16:45:22Z</DateUtc></FrequencyChange></FrequencyChanges></Clock>\n,v4_BCL_f2_g-10-1,60.001,1.0.0.236,1,-607676302,2.0.10.242,2.0.10.242,12-11-2014,12/11/2014 4:45:22 PM,11:45:22,2.0.10.147,10,,,,,,,,,,,,NA,,,NA,,NA,,,NA,,,NA,,,6,2,10,PracProc,,,,vowel 1,vowel 2,,0,0,PracticeList,say.wav,,,,
v4_BCL_f2_g,10,1,<?xml version="1.0"?>\n<Clock xmlns:dt="urn:schemas-microsoft-com:datatypes"><Description dt:dt="string">E-Prime Primary Realtime Clock</Description><StartTime><Timestamp dt:dt="int">0</Timestamp><DateUtc dt:dt="string">2014-12-11T16:45:22Z</DateUtc></StartTime><FrequencyChanges><FrequencyChange><Frequency dt:dt="r8">2327510000</Frequency><Timestamp dt:dt="r8">256619635300</Timestamp><Current dt:dt="r8">0</Current><DateUtc dt:dt="string">2014-12-11T16:45:22Z</DateUtc></FrequencyChange></FrequencyChanges></Clock>\n,v4_BCL_f2_g-10-1,60.001,1.0.0.236,1,-607676302,2.0.10.242,2.0.10.242,12-11-2014,12/11/2014 4:45:22 PM,11:45:22,2.0.10.147,11,,,,,,,,,,,,NA,,,NA,,NA,,,NA,,,NA,,,4,2,11,PracProc,,,,vowel 1,vowel 2,,0,0,PracticeList,tay.wav,,,,
v4_BCL_f2_g,10,1,<?xml version="1.0"?>\n<Clock xmlns:dt="urn:schemas-microsoft-com:datatypes"><Description dt:dt="string">E-Prime Primary Realtime Clock</Description><StartTime><Timestamp dt:dt="int">0</Timestamp><DateUtc dt:dt="string">2014-12-11T16:45:22Z</DateUtc></StartTime><FrequencyChanges><FrequencyChange><Frequency dt:dt="r8">2327510000</Frequency><Timestamp dt:dt="r8">256619635300</Timestamp><Current dt:dt="r8">0</Current><DateUtc dt:dt="string">2014-12-11T16:45:22Z</DateUtc></FrequencyChange></FrequencyChanges></Clock>\n,v4_BCL_f2_g-10-1,60.001,1.0.0.236,1,-607676302,2.0.10.242,2.0.10.242,12-11-2014,12/11/2014 4:45:22 PM,11:45:22,2.0.10.147,12,,,,,,,,,,,,NA,,,NA,,NA,,,NA,,,NA,,,1,2,12,PracProc,,,,vowel 1,vowel 2,,0,0,PracticeList,key.wav,,,,
v4_BCL_f2_g,10,1,<?xml version="1.0"?>\n<Clock xmlns:dt="urn:schemas-microsoft-com:datatypes"><Description dt:dt="string">E-Prime Primary Realtime Clock</Description><StartTime><Timestamp dt:dt="int">0</Timestamp><DateUtc dt:dt="string">2014-12-11T16:45:22Z</DateUtc></StartTime><FrequencyChanges><FrequencyChange><Frequency dt:dt="r8">2327510000</Frequency><Timestamp dt:dt="r8">256619635300</Timestamp><Current dt:dt="r8">0</Current><DateUtc dt:dt="string">2014-12-11T16:45:22Z</DateUtc></FrequencyChange></FrequencyChanges></Clock>\n,v4_BCL_f2_g-10-1,60.001,1.0.0.236,1,-607676302,2.0.10.242,2.0.10.242,12-11-2014,12/11/2014 4:45:22 PM,11:45:22,2.0.10.147,13,,,,,,,,,,,,NA,,,NA,,NA,,,NA,,,NA,,,1,3,13,PracProc,,,,vowel 1,vowel 2,1,169,134284,PracticeList,key.wav,,,,
v4_BCL_f2_g,10,1,<?xml version="1.0"?>\n<Clock xmlns:dt="urn:schemas-microsoft-com:datatypes"><Description dt:dt="string">E-Prime Primary Realtime Clock</Description><StartTime><Timestamp dt:dt="int">0</Timestamp><DateUtc dt:dt="string">2014-12-11T16:45:22Z</DateUtc></StartTime><FrequencyChanges><FrequencyChange><Frequency dt:dt="r8">2327510000</Frequency><Timestamp dt:dt="r8">256619635300</Timestamp><Current dt:dt="r8">0</Current><DateUtc dt:dt="string">2014-12-11T16:45:22Z</DateUtc></FrequencyChange></FrequencyChanges></Clock>\n,v4_BCL_f2_g-10-1,60.001,1.0.0.236,1,-607676302,2.0.10.242,2.0.10.242,12-11-2014,12/11/2014 4:45:22 PM,11:45:22,2.0.10.147,14,,,,,,,,,,,,NA,,,NA,,NA,,,NA,,,NA,,,4,3,14,PracProc,,,,vowel 1,vowel 2,,0,0,PracticeList,tay.wav,,,,
v4_BCL_f2_g,10,1,<?xml version="1.0"?>\n<Clock xmlns:dt="urn:schemas-microsoft-com:datatypes"><Description dt:dt="string">E-Prime Primary Realtime Clock</Description><StartTime><Timestamp dt:dt="int">0</Timestamp><DateUtc dt:dt="string">2014-12-11T16:45:22Z</DateUtc></StartTime><FrequencyChanges><FrequencyChange><Frequency dt:dt="r8">2327510000</Frequency><Timestamp dt:dt="r8">256619635300</Timestamp><Current dt:dt="r8">0</Current><DateUtc dt:dt="string">2014-12-11T16:45:22Z</DateUtc></FrequencyChange></FrequencyChanges></Clock>\n,v4_BCL_f2_g-10-1,60.001,1.0.0.236,1,-607676302,2.0.10.242,2.0.10.242,12-11-2014,12/11/2014 4:45:22 PM,11:45:22,2.0.10.147,15,,,,,,,,,,,,NA,,,NA,,NA,,,NA,,,NA,,,3,3,15,PracProc,,,,vowel 1,vowel 2,1,879,138477,PracticeList,tea.wav,,,,
v4_BCL_f2_g,10,1,<?xml version="1.0"?>\n<Clock xmlns:dt="urn:schemas-microsoft-com:datatypes"><Description dt:dt="string">E-Prime Primary Realtime Clock</Description><StartTime><Timestamp dt:dt="int">0</Timestamp><DateUtc dt:dt="string">2014-12-11T16:45:22Z</DateUtc></StartTime><FrequencyChanges><FrequencyChange><Frequency dt:dt="r8">2327510000</Frequency><Timestamp dt:dt="r8">256619635300</Timestamp><Current dt:dt="r8">0</Current><DateUtc dt:dt="string">2014-12-11T16:45:22Z</DateUtc></FrequencyChange></FrequencyChanges></Clock>\n,v4_BCL_f2_g-10-1,60.001,1.0.0.236,1,-607676302,2.0.10.242,2.0.10.242,12-11-2014,12/11/2014 4:45:22 PM,11:45:22,2.0.10.147,16,,,,,,,,,,,,NA,,,NA,,NA,,,NA,,,NA,,,6,3,16,PracProc,,,,vowel 1,vowel 2,,0,0,PracticeList,say.wav,,,,
v4_BCL_f2_g,10,1,<?xml version="1.0"?>\n<Clock xmlns:dt="urn:schemas-microsoft-com:datatypes"><Description dt:dt="string">E-Prime Primary Realtime Clock</Description><StartTime><Timestamp dt:dt="int">0</Timestamp><DateUtc dt:dt="string">2014-12-11T16:45:22Z</DateUtc></StartTime><FrequencyChanges><FrequencyChange><Frequency dt:dt="r8">2327510000</Frequency><Timestamp dt:dt="r8">256619635300</Timestamp><Current dt:dt="r8">0</Current><DateUtc dt:dt="string">2014-12-11T16:45:22Z</DateUtc></FrequencyChange></FrequencyChanges></Clock>\n,v4_BCL_f2_g-10-1,60.001,1.0.0.236,1,-607676302,2.0.10.242,2.0.10.242,12-11-2014,12/11/2014 4:45:22 PM,11:45:22,2.0.10.147,17,,,,,,,,,,,,NA,,,NA,,NA,,,NA,,,NA,,,5,3,17,PracProc,,,,vowel 1,vowel 2,,0,0,PracticeList,see.wav,,,,
v4_BCL_f2_g,10,1,<?xml version="1.0"?>\n<Clock xmlns:dt="urn:schemas-microsoft-com:datatypes"><Description dt:dt="string">E-Prime Primary Realtime Clock</Description><StartTime><Timestamp dt:dt="int">0</Timestamp><DateUtc dt:dt="string">2014-12-11T16:45:22Z</DateUtc></StartTime><FrequencyChanges><FrequencyChange><Frequency dt:dt="r8">2327510000</Frequency><Timestamp dt:dt="r8">256619635300</Timestamp><Current dt:dt="r8">0</Current><DateUtc dt:dt="string">2014-12-11T16:45:22Z</DateUtc></FrequencyChange></FrequencyChanges></Clock>\n,v4_BCL_f2_g-10-1,60.001,1.0.0.236,1,-607676302,2.0.10.242,2.0.10.242,12-11-2014,12/11/2014 4:45:22 PM,11:45:22,2.0.10.147,18,,,,,,,,,,,,NA,,,NA,,NA,,,NA,,,NA,,,2,3,18,PracProc,,,,vowel 1,vowel 2,1,377,144559,PracticeList,kay.wav,,,,
v4_BCL_f2_g,10,1,<?xml version="1.0"?>\n<Clock xmlns:dt="urn:schemas-microsoft-com:datatypes"><Description dt:dt="string">E-Prime Primary Realtime Clock</Description><StartTime><Timestamp dt:dt="int">0</Timestamp><DateUtc dt:dt="string">2014-12-11T16:45:22Z</DateUtc></StartTime><FrequencyChanges><FrequencyChange><Frequency dt:dt="r8">2327510000</Frequency><Timestamp dt:dt="r8">256619635300</Timestamp><Current dt:dt="r8">0</Current><DateUtc dt:dt="string">2014-12-11T16:45:22Z</DateUtc></FrequencyChange></FrequencyChanges></Clock>\n,v4_BCL_f2_g-10-1,60.001,1.0.0.236,1,-607676302,2.0.10.242,2.0.10.242,12-11-2014,12/11/2014 4:45:22 PM,11:45:22,2.0.10.147,19,,,2,1,1,,,,,,,2,,,b,,0.254,,,9.81,,,28.59,,,,,,ExposureProc,,,,vowel 1,vowel 2,,,,Block1,b2_f0_9_81_f2_28_59_dur_0_254_num_375.wav,,,,
v4_BCL_f2_g,10,1,<?xml version="1.0"?>\n<Clock xmlns:dt="urn:schemas-microsoft-com:datatypes"><Description dt:dt="string">E-Prime Primary Realtime Clock</Description><StartTime><Timestamp dt:dt="int">0</Timestamp><DateUtc dt:dt="string">2014-12-11T16:45:22Z</DateUtc></StartTime><FrequencyChanges><FrequencyChange><Frequency dt:dt="r8">2327510000</Frequency><Timestamp dt:dt="r8">256619635300</Timestamp><Current dt:dt="r8">0</Current><DateUtc dt:dt="string">2014-12-11T16:45:22Z</DateUtc></FrequencyChange></FrequencyChanges></Clock>\n,v4_BCL_f2_g-10-1,60.001,1.0.0.236,1,-607676302,2.0.10.242,2.0.10.242,12-11-2014,12/11/2014 4:45:22 PM,11:45:22,2.0.10.147,20,,,21,1,2,,,,,,,1,,,d,,0.244,,,8.88,,,31.59,,,,,,ExposureProc,,,,vowel 1,vowel 2,,,,Block1,d1_f0_8_88_f2_31_59_dur_0_244_num_107.wav,,,,
v4_BCL_f2_g,10,1,<?xml version="1.0"?>\n<Clock xmlns:dt="urn:schemas-microsoft-com:datatypes"><Description dt:dt="string">E-Prime Primary Realtime Clock</Description><StartTime><Timestamp dt:dt="int">0</Timestamp><DateUtc dt:dt="string">2014-12-11T16:45:22Z</DateUtc></StartTime><FrequencyChanges><FrequencyChange><Frequency dt:dt="r8">2327510000</Frequency><Timestamp dt:dt="r8">256619635300</Timestamp><Current dt:dt="r8">0</Current><DateUtc dt:dt="string">2014-12-11T16:45:22Z</DateUtc></FrequencyChange></FrequencyChanges></Clock>\n,v4_BCL_f2_g-10-1,60.001,1.0.0.236,1,-607676302,2.0.10.242,2.0.10.242,12-11-2014,12/11/2014 4:45:22 PM,11:45:22,2.0.10.147,21,,,31,1,3,,,,,,,2,,,g,,0.249,,,9.12,,,29.12,,,,,,ExposureProc,,,,vowel 1,vowel 2,,,,Block1,g2_f0_9_12_f2_29_12_dur_0_249_num_586.wav,,,,
v4_BCL_f2_g,10,1,<?xml version="1.0"?>\n<Clock xmlns:dt="urn:schemas-microsoft-com:datatypes"><Description dt:dt="string">E-Prime Primary Realtime Clock</Description><StartTime><Timestamp dt:dt="int">0</Timestamp><DateUtc dt:dt="string">2014-12-11T16:45:22Z</DateUtc></StartTime><FrequencyChanges><FrequencyChange><Frequency dt:dt="r8">2327510000</Frequency><Timestamp dt:dt="r8">256619635300</Timestamp><Current dt:dt="r8">0</Current><DateUtc dt:dt="string">2014-12-11T16:45:22Z</DateUtc></FrequencyChange></FrequencyChanges></Clock>\n,v4_BCL_f2_g-10-1,60.001,1.0.0.236,1,-607676302,2.0.10.242,2.0.10.242,12-11-2014,12/11/2014 4:45:22 PM,11:45:22,2.0.10.147,22,,,3,1,4,,,,,,,2,,,b,,0.257,,,9.15,,,29.11,,,,,,ExposureProc,,,,vowel 1,vowel 2,,,,Block1,b2_f0_9_15_f2_29_11_dur_0_257_num_348.wav,,,,
v4_BCL_f2_g,10,1,<?xml version="1.0"?>\n<Clock xmlns:dt="urn:schemas-microsoft-com:datatypes"><Description dt:dt="string">E-Prime Primary Realtime Clock</Description><StartTime><Timestamp dt:dt="int">0</Timestamp><DateUtc dt:dt="string">2014-12-11T16:45:22Z</DateUtc></StartTime><FrequencyChanges><FrequencyChange><Frequency dt:dt="r8">2327510000</Frequency><Timestamp dt:dt="r8">256619635300</Timestamp><Current dt:dt="r8">0</Current><DateUtc dt:dt="string">2014-12-11T16:45:22Z</DateUtc></FrequencyChange></FrequencyChanges></Clock>\n,v4_BCL_f2_g-10-1,60.001,1.0.0.236,1,-607676302,2.0.10.242,2.0.10.242,12-11-2014,12/11/2014 4:45:22 PM,11:45:22,2.0.10.147,23,,,26,1,5,,,,,,,2,,,g,,0.252,,,9.07,,,29.39,,,,,,ExposureProc,,,,vowel 1,vowel 2,,,,Block1,g2_f0_9_07_f2_29_39_dur_0_252_num_592.wav,,,,
v4_BCL_f2_g,10,1,<?xml version="1.0"?>\n<Clock xmlns:dt="urn:schemas-microsoft-com:datatypes"><Description dt:dt="string">E-Prime Primary Realtime Clock</Description><StartTime><Timestamp dt:dt="int">0</Timestamp><DateUtc dt:dt="string">2014-12-11T16:45:22Z</DateUtc></StartTime><FrequencyChanges><FrequencyChange><Frequency dt:dt="r8">2327510000</Frequency><Timestamp dt:dt="r8">256619635300</Timestamp><Current dt:dt="r8">0</Current><DateUtc dt:dt="string">2014-12-11T16:45:22Z</DateUtc></FrequencyChange></FrequencyChanges></Clock>\n,v4_BCL_f2_g-10-1,60.001,1.0.0.236,1,-607676302,2.0.10.242,2.0.10.242,12-11-2014,12/11/2014 4:45:22 PM,11:45:22,2.0.10.147,24,,,17,1,6,,,,,,,2,,,d,,0.254,,,9.11,,,29.43,,,,,,ExposureProc,,,,vowel 1,vowel 2,,,,Block1,d2_f0_9_11_f2_29_43_dur_0_254_num_423.wav,,,,
v4_BCL_f2_g,10,1,<?xml version="1.0"?>\n<Clock xmlns:dt="urn:schemas-microsoft-com:datatypes"><Description dt:dt="string">E-Prime Primary Realtime Clock</Description><StartTime><Timestamp dt:dt="int">0</Timestamp><DateUtc dt:dt="string">2014-12-11T16:45:22Z</DateUtc></StartTime><FrequencyChanges><FrequencyChange><Frequency dt:dt="r8">2327510000</Frequency><Timestamp dt:dt="r8">256619635300</Timestamp><Current dt:dt="r8">0</Current><DateUtc dt:dt="string">2014-12-11T16:45:22Z</DateUtc></FrequencyChange></FrequencyChanges></Clock>\n,v4_BCL_f2_g-10-1,60.001,1.0.0.236,1,-607676302,2.0.10.242,2.0.10.242,12-11-2014,12/11/2014 4:45:22 PM,11:45:22,2.0.10.147,25,,,1,1,7,,,,,,,1,,,b,,0.248,,,9.31,,,30.98,,,,,,ExposureProc,,,,Vowel 1,Vowel 2,,,,Block1,b1_f0_9_31_f2_30_98_dur_0_248_num_43.wav,,,,
v4_BCL_f2_g,10,1,<?xml version="1.0"?>\n<Clock xmlns:dt="urn:schemas-microsoft-com:datatypes"><Description dt:dt="string">E-Prime Primary Realtime Clock</Description><StartTime><Timestamp dt:dt="int">0</Timestamp><DateUtc dt:dt="string">2014-12-11T16:45:22Z</DateUtc></StartTime><FrequencyChanges><FrequencyChange><Frequency dt:dt="r8">2327510000</Frequency><Timestamp dt:dt="r8">256619635300</Timestamp><Current dt:dt="r8">0</Current><DateUtc dt:dt="string">2014-12-11T16:45:22Z</DateUtc></FrequencyChange></FrequencyChanges></Clock>\n,v4_BCL_f2_g-10-1,60.001,1.0.0.236,1,-607676302,2.0.10.242,2.0.10.242,12-11-2014,12/11/2014 4:45:22 PM,11:45:22,2.0.10.147,26,,,11,1,8,,,,,,,1,,,b,,0.246,,,9.17,,,29.8,,,,,,ExposureProc,,,,vowel 1,vowel 2,,,,Block1,b1_f0_9_17_f2_29_80_dur_0_246_num_91.wav,,,,
v4_BCL_f2_g,10,1,<?xml version="1.0"?>\n<Clock xmlns:dt="urn:schemas-microsoft-com:datatypes"><Description dt:dt="string">E-Prime Primary Realtime Clock</Description><StartTime><Timestamp dt:dt="int">0</Timestamp><DateUtc dt:dt="string">2014-12-11T16:45:22Z</DateUtc></StartTime><FrequencyChanges><FrequencyChange><Frequency dt:dt="r8">2327510000</Frequency><Timestamp dt:dt="r8">256619635300</Timestamp><Current dt:dt="r8">0</Current><DateUtc dt:dt="string">2014-12-11T16:45:22Z</DateUtc></FrequencyChange></FrequencyChanges></Clock>\n,v4_BCL_f2_g-10-1,60.001,1.0.0.236,1,-607676302,2.0.10.242,2.0.10.242,12-11-2014,12/11/2014 4:45:22 PM,11:45:22,2.0.10.147,27,,,8,1,9,,,,,,,2,,,b,,0.247,,,9.42,,,29.01,,,,,,ExposureProc,,,,vowel 1,vowel 2,,,,Block1,b2_f0_9_42_f2_29_01_dur_0_247_num_318.wav,,,,
v4_BCL_f2_g,10,1,<?xml version="1.0"?>\n<Clock xmlns:dt="urn:schemas-microsoft-com:datatypes"><Description dt:dt="string">E-Prime Primary Realtime Clock</Description><StartTime><Timestamp dt:dt="int">0</Timestamp><DateUtc dt:dt="string">2014-12-11T16:45:22Z</DateUtc></StartTime><FrequencyChanges><FrequencyChange><Frequency dt:dt="r8">2327510000</Frequency><Timestamp dt:dt="r8">256619635300</Timestamp><Current dt:dt="r8">0</Current><DateUtc dt:dt="string">2014-12-11T16:45:22Z</DateUtc></FrequencyChange></FrequencyChanges></Clock>\n,v4_BCL_f2_g-10-1,60.001,1.0.0.236,1,-607676302,2.0.10.242,2.0.10.242,12-11-2014,12/11/2014 4:45:22 PM,11:45:22,2.0.10.147,28,,,28,1,10,,,,,,,1,,,g,,0.251,,,8.85,,,31.63,,,,,,ExposureProc,,,,vowel 1,vowel 2,,,,Block1,g1_f0_8_85_f2_31_63_dur_0_251_num_293.wav,,,,
v4_BCL_f2_g,10,1,<?xml version="1.0"?>\n<Clock xmlns:dt="urn:schemas-microsoft-com:datatypes"><Description dt:dt="string">E-Prime Primary Realtime Clock</Description><StartTime><Timestamp dt:dt="int">0</Timestamp><DateUtc dt:dt="string">2014-12-11T16:45:22Z</DateUtc></StartTime><FrequencyChanges><FrequencyChange><Frequency dt:dt="r8">2327510000</Frequency><Timestamp dt:dt="r8">256619635300</Timestamp><Current dt:dt="r8">0</Current><DateUtc dt:dt="string">2014-12-11T16:45:22Z</DateUtc></FrequencyChange></FrequencyChanges></Clock>\n,v4_BCL_f2_g-10-1,60.001,1.0.0.236,1,-607676302,2.0.10.242,2.0.10.242,12-11-2014,12/11/2014 4:45:22 PM,11:45:22,2.0.10.147,29,,,33,1,11,,,,,,,1,,,g,,0.251,,,8.49,,,31.49,,,,,,ExposureProc,,,,vowel 1,vowel 2,,,,Block1,g1_f0_8_49_f2_31_49_dur_0_251_num_276.wav,,,,
v4_BCL_f2_g,10,1,<?xml version="1.0"?>\n<Clock xmlns:dt="urn:schemas-microsoft-com:datatypes"><Description dt:dt="string">E-Prime Primary Realtime Clock</Description><StartTime><Timestamp dt:dt="int">0</Timestamp><DateUtc dt:dt="string">2014-12-11T16:45:22Z</DateUtc></StartTime><FrequencyChanges><FrequencyChange><Frequency dt:dt="r8">2327510000</Frequency><Timestamp dt:dt="r8">256619635300</Timestamp><Current dt:dt="r8">0</Current><DateUtc dt:dt="string">2014-12-11T16:45:22Z</DateUtc></FrequencyChange></FrequencyChanges></Clock>\n,v4_BCL_f2_g-10-1,60.001,1.0.0.236,1,-607676302,2.0.10.242,2.0.10.242,12-11-2014,12/11/2014 4:45:22 PM,11:45:22,2.0.10.147,30,,,13,1,12,,,,,,,1,,,d,,0.253,,,9.15,,,31.39,,,,,,ExposureProc,,,,vowel 1,vowel 2,,,,Block1,d1_f0_9_15_f2_31_39_dur_0_253_num_105.wav,,,,
v4_BCL_f2_g,10,1,<?xml version="1.0"?>\n<Clock xmlns:dt="urn:schemas-microsoft-com:datatypes"><Description dt:dt="string">E-Prime Primary Realtime Clock</Description><StartTime><Timestamp dt:dt="int">0</Timestamp><DateUtc dt:dt="string">2014-12-11T16:45:22Z</DateUtc></StartTime><FrequencyChanges><FrequencyChange><Frequency dt:dt="r8">2327510000</Frequency><Timestamp dt:dt="r8">256619635300</Timestamp><Current dt:dt="r8">0</Current><DateUtc dt:dt="string">2014-12-11T16:45:22Z</DateUtc></FrequencyChange></FrequencyChanges></Clock>\n,v4_BCL_f2_g-10-1,60.001,1.0.0.236,1,-607676302,2.0.10.242,2.0.10.242,12-11-2014,12/11/2014 4:45:22 PM,11:45:22,2.0.10.147,31,,,30,1,13,,,,,,,1,,,g,,0.255,,,9.68,,,29.92,,,,,,ExposureProc,,,,vowel 1,vowel 2,,,,Block1,g1_f0_9_68_f2_29_92_dur_0_255_num_216.wav,,,,
v4_BCL_f2_g,10,1,<?xml version="1.0"?>\n<Clock xmlns:dt="urn:schemas-microsoft-com:datatypes"><Description dt:dt="string">E-Prime Primary Realtime Clock</Description><StartTime><Timestamp dt:dt="int">0</Timestamp><DateUtc dt:dt="string">2014-12-11T16:45:22Z</DateUtc></StartTime><FrequencyChanges><FrequencyChange><Frequency dt:dt="r8">2327510000</Frequency><Timestamp dt:dt="r8">256619635300</Timestamp><Current dt:dt="r8">0</Current><DateUtc dt:dt="string">2014-12-11T16:45:22Z</DateUtc></FrequencyChange></FrequencyChanges></Clock>\n,v4_BCL_f2_g-10-1,60.001,1.0.0.236,1,-607676302,2.0.10.242,2.0.10.242,12-11-2014,12/11/2014 4:45:22 PM,11:45:22,2.0.10.147,32,,,14,1,14,,,,,,,1,,,d,,0.248,,,10.86,,,29.98,,,,,,ExposureProc,,,,vowel 1,vowel 2,,,,Block1,d1_f0_10_86_f2_29_98_dur_0_248_num_129.wav,,,,
v4_BCL_f2_g,10,1,<?xml version="1.0"?>\n<Clock xmlns:dt="urn:schemas-microsoft-com:datatypes"><Description dt:dt="string">E-Prime Primary Realtime Clock</Description><StartTime><Timestamp dt:dt="int">0</Timestamp><DateUtc dt:dt="string">2014-12-11T16:45:22Z</DateUtc></StartTime><FrequencyChanges><FrequencyChange><Frequency dt:dt="r8">2327510000</Frequency><Timestamp dt:dt="r8">256619635300</Timestamp><Current dt:dt="r8">0</Current><DateUtc dt:dt="string">2014-12-11T16:45:22Z</DateUtc></FrequencyChange></FrequencyChanges></Clock>\n,v4_BCL_f2_g-10-1,60.001,1.0.0.236,1,-607676302,2.0.10.242,2.0.10.242,12-11-2014,12/11/2014 4:45:22 PM,11:45:22,2.0.10.147,33,,,32,1,15,,,,,,,2,,,g,,0.249,,,7.72,,,30.14,,,,,,ExposureProc,,,,vowel 1,vowel 2,,,,Block1,g2_f0_7_72_f2_30_14_dur_0_249_num_558.wav,,,,
v4_BCL_f2_g,10,1,<?xml version="1.0"?>\n<Clock xmlns:dt="urn:schemas-microsoft-com:datatypes"><Description dt:dt="string">E-Prime Primary Realtime Clock</Description><StartTime><Timestamp dt:dt="int">0</Timestamp><DateUtc dt:dt="string">2014-12-11T16:45:22Z</DateUtc></StartTime><FrequencyChanges><FrequencyChange><Frequency dt:dt="r8">2327510000</Frequency><Timestamp dt:dt="r8">256619635300</Timestamp><Current dt:dt="r8">0</Current><DateUtc dt:dt="string">2014-12-11T16:45:22Z</DateUtc></FrequencyChange></FrequencyChanges></Clock>\n,v4_BCL_f2_g-10-1,60.001,1.0.0.236,1,-607676302,2.0.10.242,2.0.10.242,12-11-2014,12/11/2014 4:45:22 PM,11:45:22,2.0.10.147,34,,,23,1,16,,,,,,,2,,,d,,0.252,,,8.17,,,29.6,,,,,,ExposureProc,,,,vowel 1,vowel 2,,,,Block1,d2_f0_8_17_f2_29_60_dur_0_252_num_462.wav,,,,
v4_BCL_f2_g,10,1,<?xml version="1.0"?>\n<Clock xmlns:dt="urn:schemas-microsoft-com:datatypes"><Description dt:dt="string">E-Prime Primary Realtime Clock</Description><StartTime><Timestamp dt:dt="int">0</Timestamp><DateUtc dt:dt="string">2014-12-11T16:45:22Z</DateUtc></StartTime><FrequencyChanges><FrequencyChange><Frequency dt:dt="r8">2327510000</Frequency><Timestamp dt:dt="r8">256619635300</Timestamp><Current dt:dt="r8">0</Current><DateUtc dt:dt="string">2014-12-11T16:45:22Z</DateUtc></FrequencyChange></FrequencyChanges></Clock>\n,v4_BCL_f2_g-10-1,60.001,1.0.0.236,1,-607676302,2.0.10.242,2.0.10.242,12-11-2014,12/11/2014 4:45:22 PM,11:45:22,2.0.10.147,35,,,29,1,17,,,,,,,1,,,g,,0.256,,,8.26,,,30.96,,,,,,ExposureProc,,,,vowel 1,vowel 2,,,,Block1,g1_f0_8_26_f2_30_96_dur_0_256_num_296.wav,,,,
v4_BCL_f2_g,10,1,<?xml version="1.0"?>\n<Clock xmlns:dt="urn:schemas-microsoft-com:datatypes"><Description dt:dt="string">E-Prime Primary Realtime Clock</Description><StartTime><Timestamp dt:dt="int">0</Timestamp><DateUtc dt:dt="string">2014-12-11T16:45:22Z</DateUtc></StartTime><FrequencyChanges><FrequencyChange><Frequency dt:dt="r8">2327510000</Frequency><Timestamp dt:dt="r8">256619635300</Timestamp><Current dt:dt="r8">0</Current><DateUtc dt:dt="string">2014-12-11T16:45:22Z</DateUtc></FrequencyChange></FrequencyChanges></Clock>\n,v4_BCL_f2_g-10-1,60.001,1.0.0.236,1,-607676302,2.0.10.242,2.0.10.242,12-11-2014,12/11/2014 4:45:22 PM,11:45:22,2.0.10.147,36,,,27,1,18,,,,,,,1,,,g,,0.247,,,8.96,,,31.6,,,,,,ExposureProc,,,,vowel 1,vowel 2,,,,Block1,g1_f0_8_96_f2_31_60_dur_0_247_num_258.wav,,,,
v4_BCL_f2_g,10,1,<?xml version="1.0"?>\n<Clock xmlns:dt="urn:schemas-microsoft-com:datatypes"><Description dt:dt="string">E-Prime Primary Realtime Clock</Description><StartTime><Timestamp dt:dt="int">0</Timestamp><DateUtc dt:dt="string">2014-12-11T16:45:22Z</DateUtc></StartTime><FrequencyChanges><FrequencyChange><Frequency dt:dt="r8">2327510000</Frequency><Timestamp dt:dt="r8">256619635300</Timestamp><Current dt:dt="r8">0</Current><DateUtc dt:dt="string">2014-12-11T16:45:22Z</DateUtc></FrequencyChange></FrequencyChanges></Clock>\n,v4_BCL_f2_g-10-1,60.001,1.0.0.236,1,-607676302,2.0.10.242,2.0.10.242,12-11-2014,12/11/2014 4:45:22 PM,11:45:22,2.0.10.147,37,,,36,1,19,,,,,,,2,,,g,,0.251,,,9.59,,,28.52,,,,,,ExposureProc,,,,vowel 1,vowel 2,,,,Block1,g2_f0_9_59_f2_28_52_dur_0_251_num_515.wav,,,,
v4_BCL_f2_g,10,1,<?xml version="1.0"?>\n<Clock xmlns:dt="urn:schemas-microsoft-com:datatypes"><Description dt:dt="string">E-Prime Primary Realtime Clock</Description><StartTime><Timestamp dt:dt="int">0</Timestamp><DateUtc dt:dt="string">2014-12-11T16:45:22Z</DateUtc></StartTime><FrequencyChanges><FrequencyChange><Frequency dt:dt="r8">2327510000</Frequency><Timestamp dt:dt="r8">256619635300</Timestamp><Current dt:dt="r8">0</Current><DateUtc dt:dt="string">2014-12-11T16:45:22Z</DateUtc></FrequencyChange></FrequencyChanges></Clock>\n,v4_BCL_f2_g-10-1,60.001,1.0.0.236,1,-607676302,2.0.10.242,2.0.10.242,12-11-2014,12/11/2014 4:45:22 PM,11:45:22,2.0.10.147,38,,,5,1,20,,,,,,,1,,,b,,0.252,,,11.03,,,30.44,,,,,,ExposureProc,,,,vowel 1,vowel 2,,,,Block1,b1_f0_11_03_f2_30_44_dur_0_252_num_85.wav,,,,
v4_BCL_f2_g,10,1,<?xml version="1.0"?>\n<Clock xmlns:dt="urn:schemas-microsoft-com:datatypes"><Description dt:dt="string">E-Prime Primary Realtime Clock</Description><StartTime><Timestamp dt:dt="int">0</Timestamp><DateUtc dt:dt="string">2014-12-11T16:45:22Z</DateUtc></StartTime><FrequencyChanges><FrequencyChange><Frequency dt:dt="r8">2327510000</Frequency><Timestamp dt:dt="r8">256619635300</Timestamp><Current dt:dt="r8">0</Current><DateUtc dt:dt="string">2014-12-11T16:45:22Z</DateUtc></FrequencyChange></FrequencyChanges></Clock>\n,v4_BCL_f2_g-10-1,60.001,1.0.0.236,1,-607676302,2.0.10.242,2.0.10.242,12-11-2014,12/11/2014 4:45:22 PM,11:45:22,2.0.10.147,39,,,20,1,21,,,,,,,2,,,d,,0.258,,,9.63,,,29.99,,,,,,ExposureProc,,,,vowel 1,vowel 2,,,,Block1,d2_f0_9_63_f2_29_99_dur_0_258_num_488.wav,,,,
v4_BCL_f2_g,10,1,<?xml version="1.0"?>\n<Clock xmlns:dt="urn:schemas-microsoft-com:datatypes"><Description dt:dt="string">E-Prime Primary Realtime Clock</Description><StartTime><Timestamp dt:dt="int">0</Timestamp><DateUtc dt:dt="string">2014-12-11T16:45:22Z</DateUtc></StartTime><FrequencyChanges><FrequencyChange><Frequency dt:dt="r8">2327510000</Frequency><Timestamp dt:dt="r8">256619635300</Timestamp><Current dt:dt="r8">0</Current><DateUtc dt:dt="string">2014-12-11T16:45:22Z</DateUtc></FrequencyChange></FrequencyChanges></Clock>\n,v4_BCL_f2_g-10-1,60.001,1.0.0.236,1,-607676302,2.0.10.242,2.0.10.242,12-11-2014,12/11/2014 4:45:22 PM,11:45:22,2.0.10.147,40,,,22,1,22,,,,,,,2,,,d,,0.246,,,8.84,,,28.92,,,,,,ExposureProc,,,,vowel 1,vowel 2,,,,Block1,d2_f0_8_84_f2_28_92_dur_0_246_num_438.wav,,,,
v4_BCL_f2_g,10,1,<?xml version="1.0"?>\n<Clock xmlns:dt="urn:schemas-microsoft-com:datatypes"><Description dt:dt="string">E-Prime Primary Realtime Clock</Description><StartTime><Timestamp dt:dt="int">0</Timestamp><DateUtc dt:dt="string">2014-12-11T16:45:22Z</DateUtc></StartTime><FrequencyChanges><FrequencyChange><Frequency dt:dt="r8">2327510000</Frequency><Timestamp dt:dt="r8">256619635300</Timestamp><Current dt:dt="r8">0</Current><DateUtc dt:dt="string">2014-12-11T16:45:22Z</DateUtc></FrequencyChange></FrequencyChanges></Clock>\n,v4_BCL_f2_g-10-1,60.001,1.0.0.236,1,-607676302,2.0.10.242,2.0.10.242,12-11-2014,12/11/2014 4:45:22 PM,11:45:22,2.0.10.147,41,,,9,1,23,,,,,,,1,,,b,,0.252,,,8.3,,,32.46,,,,,,ExposureProc,,,,vowel 1,vowel 2,,,,Block1,b1_f0_8_30_f2_32_46_dur_0_252_num_50.wav,,,,
v4_BCL_f2_g,10,1,<?xml version="1.0"?>\n<Clock xmlns:dt="urn:schemas-microsoft-com:datatypes"><Description dt:dt="string">E-Prime Primary Realtime Clock</Description><StartTime><Timestamp dt:dt="int">0</Timestamp><DateUtc dt:dt="string">2014-12-11T16:45:22Z</DateUtc></StartTime><FrequencyChanges><FrequencyChange><Frequency dt:dt="r8">2327510000</Frequency><Timestamp dt:dt="r8">256619635300</Timestamp><Current dt:dt="r8">0</Current><DateUtc dt:dt="string">2014-12-11T16:45:22Z</DateUtc></FrequencyChange></FrequencyChanges></Clock>\n,v4_BCL_f2_g-10-1,60.001,1.0.0.236,1,-607676302,2.0.10.242,2.0.10.242,12-11-2014,12/11/2014 4:45:22 PM,11:45:22,2.0.10.147,42,,,18,1,24,,,,,,,2,,,d,,0.249,,,8.59,,,29.81,,,,,,ExposureProc,,,,vowel 1,vowel 2,,,,Block1,d2_f0_8_59_f2_29_81_dur_0_249_num_463.wav,,,,
v4_BCL_f2_g,10,1,<?xml version="1.0"?>\n<Clock xmlns:dt="urn:schemas-microsoft-com:datatypes"><Description dt:dt="string">E-Prime Primary Realtime Clock</Description><StartTime><Timestamp dt:dt="int">0</Timestamp><DateUtc dt:dt="string">2014-12-11T16:45:22Z</DateUtc></StartTime><FrequencyChanges><FrequencyChange><Frequency dt:dt="r8">2327510000</Frequency><Timestamp dt:dt="r8">256619635300</Timestamp><Current dt:dt="r8">0</Current><DateUtc dt:dt="string">2014-12-11T16:45:22Z</DateUtc></FrequencyChange></FrequencyChanges></Clock>\n,v4_BCL_f2_g-10-1,60.001,1.0.0.236,1,-607676302,2.0.10.242,2.0.10.242,12-11-2014,12/11/2014 4:45:22 PM,11:45:22,2.0.10.147,43,,,4,1,25,,,,,,,1,,,b,,0.25,,,9.84,,,30.38,,,,,,ExposureProc,,,,vowel 1,vowel 2,,,,Block1,b1_f0_9_84_f2_30_38_dur_0_250_num_73.wav,,,,
v4_BCL_f2_g,10,1,<?xml version="1.0"?>\n<Clock xmlns:dt="urn:schemas-microsoft-com:datatypes"><Description dt:dt="string">E-Prime Primary Realtime Clock</Description><StartTime><Timestamp dt:dt="int">0</Timestamp><DateUtc dt:dt="string">2014-12-11T16:45:22Z</DateUtc></StartTime><FrequencyChanges><FrequencyChange><Frequency dt:dt="r8">2327510000</Frequency><Timestamp dt:dt="r8">256619635300</Timestamp><Current dt:dt="r8">0</Current><DateUtc dt:dt="string">2014-12-11T16:45:22Z</DateUtc></FrequencyChange></FrequencyChanges></Clock>\n,v4_BCL_f2_g-10-1,60.001,1.0.0.236,1,-607676302,2.0.10.242,2.0.10.242,12-11-2014,12/11/2014 4:45:22 PM,11:45:22,2.0.10.147,44,,,24,1,26,,,,,,,2,,,d,,0.245,,,9.19,,,29.19,,,,,,ExposureProc,,,,vowel 1,vowel 2,,,,Block1,d2_f0_9_19_f2_29_19_dur_0_245_num_478.wav,,,,
v4_BCL_f2_g,10,1,<?xml version="1.0"?>\n<Clock xmlns:dt="urn:schemas-microsoft-com:datatypes"><Description dt:dt="string">E-Prime Primary Realtime Clock</Description><StartTime><Timestamp dt:dt="int">0</Timestamp><DateUtc dt:dt="string">2014-12-11T16:45:22Z</DateUtc></StartTime><FrequencyChanges><FrequencyChange><Frequency dt:dt="r8">2327510000</Frequency><Timestamp dt:dt="r8">256619635300</Timestamp><Current dt:dt="r8">0</Current><DateUtc dt:dt="string">2014-12-11T16:45:22Z</DateUtc></FrequencyChange></FrequencyChanges></Clock>\n,v4_BCL_f2_g-10-1,60.001,1.0.0.236,1,-607676302,2.0.10.242,2.0.10.242,12-11-2014,12/11/2014 4:45:22 PM,11:45:22,2.0.10.147,45,,,25,1,27,,,,,,,1,,,g,,0.248,,,10.93,,,29.74,,,,,,ExposureProc,,,,vowel 1,vowel 2,,,,Block1,g1_f0_10_93_f2_29_74_dur_0_248_num_251.wav,,,,
v4_BCL_f2_g,10,1,<?xml version="1.0"?>\n<Clock xmlns:dt="urn:schemas-microsoft-com:datatypes"><Description dt:dt="string">E-Prime Primary Realtime Clock</Description><StartTime><Timestamp dt:dt="int">0</Timestamp><DateUtc dt:dt="string">2014-12-11T16:45:22Z</DateUtc></StartTime><FrequencyChanges><FrequencyChange><Frequency dt:dt="r8">2327510000</Frequency><Timestamp dt:dt="r8">256619635300</Timestamp><Current dt:dt="r8">0</Current><DateUtc dt:dt="string">2014-12-11T16:45:22Z</DateUtc></FrequencyChange></FrequencyChanges></Clock>\n,v4_BCL_f2_g-10-1,60.001,1.0.0.236,1,-607676302,2.0.10.242,2.0.10.242,12-11-2014,12/11/2014 4:45:22 PM,11:45:22,2.0.10.147,46,,,10,1,28,,,,,,,1,,,b,,0.245,,,8.08,,,31.67,,,,,,ExposureProc,,,,vowel 1,vowel 2,,,,Block1,b1_f0_8_08_f2_31_67_dur_0_245_num_64.wav,,,,
v4_BCL_f2_g,10,1,<?xml version="1.0"?>\n<Clock xmlns:dt="urn:schemas-microsoft-com:datatypes"><Description dt:dt="string">E-Prime Primary Realtime Clock</Description><StartTime><Timestamp dt:dt="int">0</Timestamp><DateUtc dt:dt="string">2014-12-11T16:45:22Z</DateUtc></StartTime><FrequencyChanges><FrequencyChange><Frequency dt:dt="r8">2327510000</Frequency><Timestamp dt:dt="r8">256619635300</Timestamp><Current dt:dt="r8">0</Current><DateUtc dt:dt="string">2014-12-11T16:45:22Z</DateUtc></FrequencyChange></FrequencyChanges></Clock>\n,v4_BCL_f2_g-10-1,60.001,1.0.0.236,1,-607676302,2.0.10.242,2.0.10.242,12-11-2014,12/11/2014 4:45:22 PM,11:45:22,2.0.10.147,47,,,16,1,29,,,,,,,1,,,d,,0.25,,,9.57,,,31.18,,,,,,ExposureProc,,,,vowel 1,vowel 2,,,,Block1,d1_f0_9_57_f2_31_18_dur_0_250_num_131.wav,,,,
v4_BCL_f2_g,10,1,<?xml version="1.0"?>\n<Clock xmlns:dt="urn:schemas-microsoft-com:datatypes"><Description dt:dt="string">E-Prime Primary Realtime Clock</Description><StartTime><Timestamp dt:dt="int">0</Timestamp><DateUtc dt:dt="string">2014-12-11T16:45:22Z</DateUtc></StartTime><FrequencyChanges><FrequencyChange><Frequency dt:dt="r8">2327510000</Frequency><Timestamp dt:dt="r8">256619635300</Timestamp><Current dt:dt="r8">0</Current><DateUtc dt:dt="string">2014-12-11T16:45:22Z</DateUtc></FrequencyChange></FrequencyChanges></Clock>\n,v4_BCL_f2_g-10-1,60.001,1.0.0.236,1,-607676302,2.0.10.242,2.0.10.242,12-11-2014,12/11/2014 4:45:22 PM,11:45:22,2.0.10.147,48,,,7,1,30,,,,,,,2,,,b,,0.246,,,8.39,,,29.83,,,,,,ExposureProc,,,,vowel 1,vowel 2,,,,Block1,b2_f0_8_39_f2_29_83_dur_0_246_num_353.wav,,,,
v4_BCL_f2_g,10,1,<?xml version="1.0"?>\n<Clock xmlns:dt="urn:schemas-microsoft-com:datatypes"><Description dt:dt="string">E-Prime Primary Realtime Clock</Description><StartTime><Timestamp dt:dt="int">0</Timestamp><DateUtc dt:dt="string">2014-12-11T16:45:22Z</DateUtc></StartTime><FrequencyChanges><FrequencyChange><Frequency dt:dt="r8">2327510000</Frequency><Timestamp dt:dt="r8">256619635300</Timestamp><Current dt:dt="r8">0</Current><DateUtc dt:dt="string">2014-12-11T16:45:22Z</DateUtc></FrequencyChange></FrequencyChanges></Clock>\n,v4_BCL_f2_g-10-1,60.001,1.0.0.236,1,-607676302,2.0.10.242,2.0.10.242,12-11-2014,12/11/2014 4:45:22 PM,11:45:22,2.0.10.147,49,,,6,1,31,,,,,,,2,,,b,,0.251,,,9.34,,,28.71,,,,,,ExposureProc,,,,vowel 1,vowel 2,,,,Block1,b2_f0_9_34_f2_28_71_dur_0_251_num_304.wav,,,,
v4_BCL_f2_g,10,1,<?xml version="1.0"?>\n<Clock xmlns:dt="urn:schemas-microsoft-com:datatypes"><Description dt:dt="string">E-Prime Primary Realtime Clock</Description><StartTime><Timestamp dt:dt="int">0</Timestamp><DateUtc dt:dt="string">2014-12-11T16:45:22Z</DateUtc></StartTime><FrequencyChanges><FrequencyChange><Frequency dt:dt="r8">2327510000</Frequency><Timestamp dt:dt="r8">256619635300</Timestamp><Current dt:dt="r8">0</Current><DateUtc dt:dt="string">2014-12-11T16:45:22Z</DateUtc></FrequencyChange></FrequencyChanges></Clock>\n,v4_BCL_f2_g-10-1,60.001,1.0.0.236,1,-607676302,2.0.10.242,2.0.10.242,12-11-2014,12/11/2014 4:45:22 PM,11:45:22,2.0.10.147,50,,,35,1,32,,,,,,,2,,,g,,0.247,,,9.27,,,29.4,,,,,,ExposureProc,,,,vowel 1,vowel 2,,,,Block1,g2_f0_9_27_f2_29_40_dur_0_247_num_583.wav,,,,
v4_BCL_f2_g,10,1,<?xml version="1.0"?>\n<Clock xmlns:dt="urn:schemas-microsoft-com:datatypes"><Description dt:dt="string">E-Prime Primary Realtime Clock</Description><StartTime><Timestamp dt:dt="int">0</Timestamp><DateUtc dt:dt="string">2014-12-11T16:45:22Z</DateUtc></StartTime><FrequencyChanges><FrequencyChange><Frequency dt:dt="r8">2327510000</Frequency><Timestamp dt:dt="r8">256619635300</Timestamp><Current dt:dt="r8">0</Current><DateUtc dt:dt="string">2014-12-11T16:45:22Z</DateUtc></FrequencyChange></FrequencyChanges></Clock>\n,v4_BCL_f2_g-10-1,60.001,1.0.0.236,1,-607676302,2.0.10.242,2.0.10.242,12-11-2014,12/11/2014 4:45:22 PM,11:45:22,2.0.10.147,51,,,12,1,33,,,,,,,2,,,b,,0.247,,,8.57,,,30.45,,,,,,ExposureProc,,,,vowel 1,vowel 2,,,,Block1,b2_f0_8_57_f2_30_45_dur_0_247_num_352.wav,,,,
v4_BCL_f2_g,10,1,<?xml version="1.0"?>\n<Clock xmlns:dt="urn:schemas-microsoft-com:datatypes"><Description dt:dt="string">E-Prime Primary Realtime Clock</Description><StartTime><Timestamp dt:dt="int">0</Timestamp><DateUtc dt:dt="string">2014-12-11T16:45:22Z</DateUtc></StartTime><FrequencyChanges><FrequencyChange><Frequency dt:dt="r8">2327510000</Frequency><Timestamp dt:dt="r8">256619635300</Timestamp><Current dt:dt="r8">0</Current><DateUtc dt:dt="string">2014-12-11T16:45:22Z</DateUtc></FrequencyChange></FrequencyChanges></Clock>\n,v4_BCL_f2_g-10-1,60.001,1.0.0.236,1,-607676302,2.0.10.242,2.0.10.242,12-11-2014,12/11/2014 4:45:22 PM,11:45:22,2.0.10.147,52,,,15,1,34,,,,,,,1,,,d,,0.25,,,9.42,,,30.45,,,,,,ExposureProc,,,,vowel 1,vowel 2,,,,Block1,d1_f0_9_42_f2_30_45_dur_0_250_num_114.wav,,,,
v4_BCL_f2_g,10,1,<?xml version="1.0"?>\n<Clock xmlns:dt="urn:schemas-microsoft-com:datatypes"><Description dt:dt="string">E-Prime Primary Realtime Clock</Description><StartTime><Timestamp dt:dt="int">0</Timestamp><DateUtc dt:dt="string">2014-12-11T16:45:22Z</DateUtc></StartTime><FrequencyChanges><FrequencyChange><Frequency dt:dt="r8">2327510000</Frequency><Timestamp dt:dt="r8">256619635300</Timestamp><Current dt:dt="r8">0</Current><DateUtc dt:dt="string">2014-12-11T16:45:22Z</DateUtc></FrequencyChange></FrequencyChanges></Clock>\n,v4_BCL_f2_g-10-1,60.001,1.0.0.236,1,-607676302,2.0.10.242,2.0.10.242,12-11-2014,12/11/2014 4:45:22 PM,11:45:22,2.0.10.147,53,,,19,1,35,,,,,,,1,,,d,,0.254,,,9.75,,,30.01,,,,,,ExposureProc,,,,vowel 1,vowel 2,,,,Block1,d1_f0_9_75_f2_30_01_dur_0_254_num_158.wav,,,,
v4_BCL_f2_g,10,1,<?xml version="1.0"?>\n<Clock xmlns:dt="urn:schemas-microsoft-com:datatypes"><Description dt:dt="string">E-Prime Primary Realtime Clock</Description><StartTime><Timestamp dt:dt="int">0</Timestamp><DateUtc dt:dt="string">2014-12-11T16:45:22Z</DateUtc></StartTime><FrequencyChanges><FrequencyChange><Frequency dt:dt="r8">2327510000</Frequency><Timestamp dt:dt="r8">256619635300</Timestamp><Current dt:dt="r8">0</Current><DateUtc dt:dt="string">2014-12-11T16:45:22Z</DateUtc></FrequencyChange></FrequencyChanges></Clock>\n,v4_BCL_f2_g-10-1,60.001,1.0.0.236,1,-607676302,2.0.10.242,2.0.10.242,12-11-2014,12/11/2014 4:45:22 PM,11:45:22,2.0.10.147,54,,,34,1,36,,,,,,,2,,,g,,0.254,,,9.48,,,29.3,,,,,,ExposureProc,,,,vowel 1,vowel 2,,,,Block1,g2_f0_9_48_f2_29_30_dur_0_254_num_530.wav,,,,
v4_BCL_f2_g,10,1,<?xml version="1.0"?>\n<Clock xmlns:dt="urn:schemas-microsoft-com:datatypes"><Description dt:dt="string">E-Prime Primary Realtime Clock</Description><StartTime><Timestamp dt:dt="int">0</Timestamp><DateUtc dt:dt="string">2014-12-11T16:45:22Z</DateUtc></StartTime><FrequencyChanges><FrequencyChange><Frequency dt:dt="r8">2327510000</Frequency><Timestamp dt:dt="r8">256619635300</Timestamp><Current dt:dt="r8">0</Current><DateUtc dt:dt="string">2014-12-11T16:45:22Z</DateUtc></FrequencyChange></FrequencyChanges></Clock>\n,v4_BCL_f2_g-10-1,60.001,1.0.0.236,1,-607676302,2.0.10.242,2.0.10.242,12-11-2014,12/11/2014 4:45:22 PM,11:45:22,2.0.10.147,55,,,,,,1,1,1,,,,2,,,g,,0.25,,,8.18,,,30.04,,,,,,TrialProc1,,,,vowel 1,vowel 2,,0,0,Block2,g2_f0_8_18_f2_30_04_dur_0_250_num_534.wav,,,,
v4_BCL_f2_g,10,1,<?xml version="1.0"?>\n<Clock xmlns:dt="urn:schemas-microsoft-com:datatypes"><Description dt:dt="string">E-Prime Primary Realtime Clock</Description><StartTime><Timestamp dt:dt="int">0</Timestamp><DateUtc dt:dt="string">2014-12-11T16:45:22Z</DateUtc></StartTime><FrequencyChanges><FrequencyChange><Frequency dt:dt="r8">2327510000</Frequency><Timestamp dt:dt="r8">256619635300</Timestamp><Current dt:dt="r8">0</Current><DateUtc dt:dt="string">2014-12-11T16:45:22Z</DateUtc></FrequencyChange></FrequencyChanges></Clock>\n,v4_BCL_f2_g-10-1,60.001,1.0.0.236,1,-607676302,2.0.10.242,2.0.10.242,12-11-2014,12/11/2014 4:45:22 PM,11:45:22,2.0.10.147,56,,,,,,2,1,2,,,,1,,,g,,0.252,,,10.01,,,30.77,,,,,,TrialProc1,,,,vowel 1,vowel 2,1,342,289972,Block2,g1_f0_10_01_f2_30_77_dur_0_252_num_269.wav,,,,
v4_BCL_f2_g,10,1,<?xml version="1.0"?>\n<Clock xmlns:dt="urn:schemas-microsoft-com:datatypes"><Description dt:dt="string">E-Prime Primary Realtime Clock</Description><StartTime><Timestamp dt:dt="int">0</Timestamp><DateUtc dt:dt="string">2014-12-11T16:45:22Z</DateUtc></StartTime><FrequencyChanges><FrequencyChange><Frequency dt:dt="r8">2327510000</Frequency><Timestamp dt:dt="r8">256619635300</Timestamp><Current dt:dt="r8">0</Current><DateUtc dt:dt="string">2014-12-11T16:45:22Z</DateUtc></FrequencyChange></FrequencyChanges></Clock>\n,v4_BCL_f2_g-10-1,60.001,1.0.0.236,1,-607676302,2.0.10.242,2.0.10.242,12-11-2014,12/11/2014 4:45:22 PM,11:45:22,2.0.10.147,57,,,,,,3,1,3,,,,2,,,g,,0.254,,,8.99,,,28.58,,,,,,TrialProc1,,,,vowel 1,vowel 2,1,611,291391,Block2,g2_f0_8_99_f2_28_58_dur_0_254_num_501.wav,,,,
v4_BCL_f2_g,10,1,<?xml version="1.0"?>\n<Clock xmlns:dt="urn:schemas-microsoft-com:datatypes"><Description dt:dt="string">E-Prime Primary Realtime Clock</Description><StartTime><Timestamp dt:dt="int">0</Timestamp><DateUtc dt:dt="string">2014-12-11T16:45:22Z</DateUtc></StartTime><FrequencyChanges><FrequencyChange><Frequency dt:dt="r8">2327510000</Frequency><Timestamp dt:dt="r8">256619635300</Timestamp><Current dt:dt="r8">0</Current><DateUtc dt:dt="string">2014-12-11T16:45:22Z</DateUtc></FrequencyChange></FrequencyChanges></Clock>\n,v4_BCL_f2_g-10-1,60.001,1.0.0.236,1,-607676302,2.0.10.242,2.0.10.242,12-11-2014,12/11/2014 4:45:22 PM,11:45:22,2.0.10.147,58,,,,,,4,1,4,,,,2,,,g,,0.253,,,8.96,,,29.72,,,,,,TrialProc1,,,,vowel 1,vowel 2,1,657,292870,Block2,g2_f0_8_96_f2_29_72_dur_0_253_num_533.wav,,,,
v4_BCL_f2_g,10,1,<?xml version="1.0"?>\n<Clock xmlns:dt="urn:schemas-microsoft-com:datatypes"><Description dt:dt="string">E-Prime Primary Realtime Clock</Description><StartTime><Timestamp dt:dt="int">0</Timestamp><DateUtc dt:dt="string">2014-12-11T16:45:22Z</DateUtc></StartTime><FrequencyChanges><FrequencyChange><Frequency dt:dt="r8">2327510000</Frequency><Timestamp dt:dt="r8">256619635300</Timestamp><Current dt:dt="r8">0</Current><DateUtc dt:dt="string">2014-12-11T16:45:22Z</DateUtc></FrequencyChange></FrequencyChanges></Clock>\n,v4_BCL_f2_g-10-1,60.001,1.0.0.236,1,-607676302,2.0.10.242,2.0.10.242,12-11-2014,12/11/2014 4:45:22 PM,11:45:22,2.0.10.147,59,,,,,,5,1,5,,,,2,,,g,,0.244,,,9.21,,,29.39,,,,,,TrialProc1,,,,vowel 1,vowel 2,1,319,293999,Block2,g2_f0_9_21_f2_29_39_dur_0_244_num_557.wav,,,,
v4_BCL_f2_g,10,1,<?xml version="1.0"?>\n<Clock xmlns:dt="urn:schemas-microsoft-com:datatypes"><Description dt:dt="string">E-Prime Primary Realtime Clock</Description><StartTime><Timestamp dt:dt="int">0</Timestamp><DateUtc dt:dt="string">2014-12-11T16:45:22Z</DateUtc></StartTime><FrequencyChanges><FrequencyChange><Frequency dt:dt="r8">2327510000</Frequency><Timestamp dt:dt="r8">256619635300</Timestamp><Current dt:dt="r8">0</Current><DateUtc dt:dt="string">2014-12-11T16:45:22Z</DateUtc></FrequencyChange></FrequencyChanges></Clock>\n,v4_BCL_f2_g-10-1,60.001,1.0.0.236,1,-607676302,2.0.10.242,2.0.10.242,12-11-2014,12/11/2014 4:45:22 PM,11:45:22,2.0.10.147,60,,,,,,6,1,6,,,,1,,,g,,0.248,,,8.79,,,30.96,,,,,,TrialProc1,,,,vowel 1,vowel 2,1,492,295305,Block2,g1_f0_8_79_f2_30_96_dur_0_248_num_290.wav,,,,
v4_BCL_f2_g,10,1,<?xml version="1.0"?>\n<Clock xmlns:dt="urn:schemas-microsoft-com:datatypes"><Description dt:dt="string">E-Prime Primary Realtime Clock</Description><StartTime><Timestamp dt:dt="int">0</Timestamp><DateUtc dt:dt="string">2014-12-11T16:45:22Z</DateUtc></StartTime><FrequencyChanges><FrequencyChange><Frequency dt:dt="r8">2327510000</Frequency><Timestamp dt:dt="r8">256619635300</Timestamp><Current dt:dt="r8">0</Current><DateUtc dt:dt="string">2014-12-11T16:45:22Z</DateUtc></FrequencyChange></FrequencyChanges></Clock>\n,v4_BCL_f2_g-10-1,60.001,1.0.0.236,1,-607676302,2.0.10.242,2.0.10.242,12-11-2014,12/11/2014 4:45:22 PM,11:45:22,2.0.10.147,61,,,,,,7,1,7,,,,1,,,g,,0.253,,,10.82,,,29.96,,,,,,TrialProc1,,,,vowel 1,vowel 2,2,507,296620,Block2,g1_f0_10_82_f2_29_96_dur_0_253_num_225.wav,,,,
v4_BCL_f2_g,10,1,<?xml version="1.0"?>\n<Clock xmlns:dt="urn:schemas-microsoft-com:datatypes"><Description dt:dt="string">E-Prime Primary Realtime Clock</Description><StartTime><Timestamp dt:dt="int">0</Timestamp><DateUtc dt:dt="string">2014-12-11T16:45:22Z</DateUtc></StartTime><FrequencyChanges><FrequencyChange><Frequency dt:dt="r8">2327510000</Frequency><Timestamp dt:dt="r8">256619635300</Timestamp><Current dt:dt="r8">0</Current><DateUtc dt:dt="string">2014-12-11T16:45:22Z</DateUtc></FrequencyChange></FrequencyChanges></Clock>\n,v4_BCL_f2_g-10-1,60.001,1.0.0.236,1,-607676302,2.0.10.242,2.0.10.242,12-11-2014,12/11/2014 4:45:22 PM,11:45:22,2.0.10.147,62,,,,,,8,1,8,,,,2,,,g,,0.247,,,9.41,,,28.83,,,,,,TrialProc1,,,,vowel 1,vowel 2,1,496,297926,Block2,g2_f0_9_41_f2_28_83_dur_0_247_num_531.wav,,,,
v4_BCL_f2_g,10,1,<?xml version="1.0"?>\n<Clock xmlns:dt="urn:schemas-microsoft-com:datatypes"><Description dt:dt="string">E-Prime Primary Realtime Clock</Description><StartTime><Timestamp dt:dt="int">0</Timestamp><DateUtc dt:dt="string">2014-12-11T16:45:22Z</DateUtc></StartTime><FrequencyChanges><FrequencyChange><Frequency dt:dt="r8">2327510000</Frequency><Timestamp dt:dt="r8">256619635300</Timestamp><Current dt:dt="r8">0</Current><DateUtc dt:dt="string">2014-12-11T16:45:22Z</DateUtc></FrequencyChange></FrequencyChanges></Clock>\n,v4_BCL_f2_g-10-1,60.001,1.0.0.236,1,-607676302,2.0.10.242,2.0.10.242,12-11-2014,12/11/2014 4:45:22 PM,11:45:22,2.0.10.147,63,,,,,,9,1,9,,,,2,,,g,,0.243,,,8.46,,,29.96,,,,,,TrialProc1,,,,vowel 1,vowel 2,1,485,299215,Block2,g2_f0_8_46_f2_29_96_dur_0_243_num_504.wav,,,,
v4_BCL_f2_g,10,1,<?xml version="1.0"?>\n<Clock xmlns:dt="urn:schemas-microsoft-com:datatypes"><Description dt:dt="string">E-Prime Primary Realtime Clock</Description><StartTime><Timestamp dt:dt="int">0</Timestamp><DateUtc dt:dt="string">2014-12-11T16:45:22Z</DateUtc></StartTime><FrequencyChanges><FrequencyChange><Frequency dt:dt="r8">2327510000</Frequency><Timestamp dt:dt="r8">256619635300</Timestamp><Current dt:dt="r8">0</Current><DateUtc dt:dt="string">2014-12-11T16:45:22Z</DateUtc></FrequencyChange></FrequencyChanges></Clock>\n,v4_BCL_f2_g-10-1,60.001,1.0.0.236,1,-607676302,2.0.10.242,2.0.10.242,12-11-2014,12/11/2014 4:45:22 PM,11:45:22,2.0.10.147,64,,,,,,10,1,10,,,,1,,,g,,0.248,,,9.39,,,30.11,,,,,,TrialProc1,,,,vowel 1,vowel 2,1,369,300399,Block2,g1_f0_9_39_f2_30_11_dur_0_248_num_205.wav,,,,
v4_BCL_f2_g,10,1,<?xml version="1.0"?>\n<Clock xmlns:dt="urn:schemas-microsoft-com:datatypes"><Description dt:dt="string">E-Prime Primary Realtime Clock</Description><StartTime><Timestamp dt:dt="int">0</Timestamp><DateUtc dt:dt="string">2014-12-11T16:45:22Z</DateUtc></StartTime><FrequencyChanges><FrequencyChange><Frequency dt:dt="r8">2327510000</Frequency><Timestamp dt:dt="r8">256619635300</Timestamp><Current dt:dt="r8">0</Current><DateUtc dt:dt="string">2014-12-11T16:45:22Z</DateUtc></FrequencyChange></FrequencyChanges></Clock>\n,v4_BCL_f2_g-10-1,60.001,1.0.0.236,1,-607676302,2.0.10.242,2.0.10.242,12-11-2014,12/11/2014 4:45:22 PM,11:45:22,2.0.10.147,65,,,,,,11,1,11,,,,1,,,g,,0.251,,,9.58,,,31.06,,,,,,TrialProc1,,,,vowel 1,vowel 2,1,346,301559,Block2,g1_f0_9_58_f2_31_06_dur_0_251_num_222.wav,,,,
v4_BCL_f2_g,10,1,<?xml version="1.0"?>\n<Clock xmlns:dt="urn:schemas-microsoft-com:datatypes"><Description dt:dt="string">E-Prime Primary Realtime Clock</Description><StartTime><Timestamp dt:dt="int">0</Timestamp><DateUtc dt:dt="string">2014-12-11T16:45:22Z</DateUtc></StartTime><FrequencyChanges><FrequencyChange><Frequency dt:dt="r8">2327510000</Frequency><Timestamp dt:dt="r8">256619635300</Timestamp><Current dt:dt="r8">0</Current><DateUtc dt:dt="string">2014-12-11T16:45:22Z</DateUtc></FrequencyChange></FrequencyChanges></Clock>\n,v4_BCL_f2_g-10-1,60.001,1.0.0.236,1,-607676302,2.0.10.242,2.0.10.242,12-11-2014,12/11/2014 4:45:22 PM,11:45:22,2.0.10.147,66,,,,,,12,1,12,,,,1,,,g,,0.249,,,10.26,,,29.72,,,,,,TrialProc1,,,,vowel 1,vowel 2,2,379,302759,Block2,g1_f0_10_26_f2_29_72_dur_0_249_num_202.wav,,,,
v4_BCL_f2_g,10,1,<?xml version="1.0"?>\n<Clock xmlns:dt="urn:schemas-microsoft-com:datatypes"><Description dt:dt="string">E-Prime Primary Realtime Clock</Description><StartTime><Timestamp dt:dt="int">0</Timestamp><DateUtc dt:dt="string">2014-12-11T16:45:22Z</DateUtc></StartTime><FrequencyChanges><FrequencyChange><Frequency dt:dt="r8">2327510000</Frequency><Timestamp dt:dt="r8">256619635300</Timestamp><Current dt:dt="r8">0</Current><DateUtc dt:dt="string">2014-12-11T16:45:22Z</DateUtc></FrequencyChange></FrequencyChanges></Clock>\n,v4_BCL_f2_g-10-1,60.001,1.0.0.236,1,-607676302,2.0.10.242,2.0.10.242,12-11-2014,12/11/2014 4:45:22 PM,11:45:22,2.0.10.147,67,,,,,,13,1,13,,,,2,,,g,,0.246,,,9.09,,,29.46,,,,,,TrialProc1,,,,vowel 1,vowel 2,1,386,303966,Block2,g2_f0_9_09_f2_29_46_dur_0_246_num_587.wav,,,,
v4_BCL_f2_g,10,1,<?xml version="1.0"?>\n<Clock xmlns:dt="urn:schemas-microsoft-com:datatypes"><Description dt:dt="string">E-Prime Primary Realtime Clock</Description><StartTime><Timestamp dt:dt="int">0</Timestamp><DateUtc dt:dt="string">2014-12-11T16:45:22Z</DateUtc></StartTime><FrequencyChanges><FrequencyChange><Frequency dt:dt="r8">2327510000</Frequency><Timestamp dt:dt="r8">256619635300</Timestamp><Current dt:dt="r8">0</Current><DateUtc dt:dt="string">2014-12-11T16:45:22Z</DateUtc></FrequencyChange></FrequencyChanges></Clock>\n,v4_BCL_f2_g-10-1,60.001,1.0.0.236,1,-607676302,2.0.10.242,2.0.10.242,12-11-2014,12/11/2014 4:45:22 PM,11:45:22,2.0.10.147,68,,,,,,14,1,14,,,,1,,,g,,0.248,,,9.85,,,30.45,,,,,,TrialProc1,,,,vowel 1,vowel 2,1,333,305113,Block2,g1_f0_9_85_f2_30_45_dur_0_248_num_297.wav,,,,
v4_BCL_f2_g,10,1,<?xml version="1.0"?>\n<Clock xmlns:dt="urn:schemas-microsoft-com:datatypes"><Description dt:dt="string">E-Prime Primary Realtime Clock</Description><StartTime><Timestamp dt:dt="int">0</Timestamp><DateUtc dt:dt="string">2014-12-11T16:45:22Z</DateUtc></StartTime><FrequencyChanges><FrequencyChange><Frequency dt:dt="r8">2327510000</Frequency><Timestamp dt:dt="r8">256619635300</Timestamp><Current dt:dt="r8">0</Current><DateUtc dt:dt="string">2014-12-11T16:45:22Z</DateUtc></FrequencyChange></FrequencyChanges></Clock>\n,v4_BCL_f2_g-10-1,60.001,1.0.0.236,1,-607676302,2.0.10.242,2.0.10.242,12-11-2014,12/11/2014 4:45:22 PM,11:45:22,2.0.10.147,69,,,,,,15,1,15,,,,1,,,g,,0.243,,,9.45,,,30.99,,,,,,TrialProc1,,,,vowel 1,vowel 2,1,313,306243,Block2,g1_f0_9_45_f2_30_99_dur_0_243_num_239.wav,,,,
v4_BCL_f2_g,10,1,<?xml version="1.0"?>\n<Clock xmlns:dt="urn:schemas-microsoft-com:datatypes"><Description dt:dt="string">E-Prime Primary Realtime Clock</Description><StartTime><Timestamp dt:dt="int">0</Timestamp><DateUtc dt:dt="string">2014-12-11T16:45:22Z</DateUtc></StartTime><FrequencyChanges><FrequencyChange><Frequency dt:dt="r8">2327510000</Frequency><Timestamp dt:dt="r8">256619635300</Timestamp><Current dt:dt="r8">0</Current><DateUtc dt:dt="string">2014-12-11T16:45:22Z</DateUtc></FrequencyChange></FrequencyChanges></Clock>\n,v4_BCL_f2_g-10-1,60.001,1.0.0.236,1,-607676302,2.0.10.242,2.0.10.242,12-11-2014,12/11/2014 4:45:22 PM,11:45:22,2.0.10.147,70,,,,,,16,1,16,,,,2,,,g,,0.248,,,8.81,,,29.68,,,,,,TrialProc1,,,,vowel 1,vowel 2,1,373,307436,Block2,g2_f0_8_81_f2_29_68_dur_0_248_num_509.wav,,,,
v4_BCL_f2_g,10,1,<?xml version="1.0"?>\n<Clock xmlns:dt="urn:schemas-microsoft-com:datatypes"><Description dt:dt="string">E-Prime Primary Realtime Clock</Description><StartTime><Timestamp dt:dt="int">0</Timestamp><DateUtc dt:dt="string">2014-12-11T16:45:22Z</DateUtc></StartTime><FrequencyChanges><FrequencyChange><Frequency dt:dt="r8">2327510000</Frequency><Timestamp dt:dt="r8">256619635300</Timestamp><Current dt:dt="r8">0</Current><DateUtc dt:dt="string">2014-12-11T16:45:22Z</DateUtc></FrequencyChange></FrequencyChanges></Clock>\n,v4_BCL_f2_g-10-1,60.001,1.0.0.236,1,-607676302,2.0.10.242,2.0.10.242,12-11-2014,12/11/2014 4:45:22 PM,11:45:22,2.0.10.147,71,,,,,,17,1,17,,,,2,,,g,,0.25,,,9.13,,,29.01,,,,,,TrialProc1,,,,vowel 1,vowel 2,1,337,308584,Block2,g2_f0_9_13_f2_29_01_dur_0_250_num_582.wav,,,,
v4_BCL_f2_g,10,1,<?xml version="1.0"?>\n<Clock xmlns:dt="urn:schemas-microsoft-com:datatypes"><Description dt:dt="string">E-Prime Primary Realtime Clock</Description><StartTime><Timestamp dt:dt="int">0</Timestamp><DateUtc dt:dt="string">2014-12-11T16:45:22Z</DateUtc></StartTime><FrequencyChanges><FrequencyChange><Frequency dt:dt="r8">2327510000</Frequency><Timestamp dt:dt="r8">256619635300</Timestamp><Current dt:dt="r8">0</Current><DateUtc dt:dt="string">2014-12-11T16:45:22Z</DateUtc></FrequencyChange></FrequencyChanges></Clock>\n,v4_BCL_f2_g-10-1,60.001,1.0.0.236,1,-607676302,2.0.10.242,2.0.10.242,12-11-2014,12/11/2014 4:45:22 PM,11:45:22,2.0.10.147,72,,,,,,18,1,18,,,,2,,,g,,0.253,,,9.09,,,29.11,,,,,,TrialProc1,,,,vowel 1,vowel 2,1,260,309657,Block2,g2_f0_9_09_f2_29_11_dur_0_253_num_556.wav,,,,
v4_BCL_f2_g,10,1,<?xml version="1.0"?>\n<Clock xmlns:dt="urn:schemas-microsoft-com:datatypes"><Description dt:dt="string">E-Prime Primary Realtime Clock</Description><StartTime><Timestamp dt:dt="int">0</Timestamp><DateUtc dt:dt="string">2014-12-11T16:45:22Z</DateUtc></StartTime><FrequencyChanges><FrequencyChange><Frequency dt:dt="r8">2327510000</Frequency><Timestamp dt:dt="r8">256619635300</Timestamp><Current dt:dt="r8">0</Current><DateUtc dt:dt="string">2014-12-11T16:45:22Z</DateUtc></FrequencyChange></FrequencyChanges></Clock>\n,v4_BCL_f2_g-10-1,60.001,1.0.0.236,1,-607676302,2.0.10.242,2.0.10.242,12-11-2014,12/11/2014 4:45:22 PM,11:45:22,2.0.10.147,73,,,,,,19,1,19,,,,2,,,g,,0.251,,,7.92,,,29.95,,,,,,TrialProc1,,,,vowel 1,vowel 2,2,350,310813,Block2,g2_f0_7_92_f2_29_95_dur_0_251_num_589.wav,,,,
v4_BCL_f2_g,10,1,<?xml version="1.0"?>\n<Clock xmlns:dt="urn:schemas-microsoft-com:datatypes"><Description dt:dt="string">E-Prime Primary Realtime Clock</Description><StartTime><Timestamp dt:dt="int">0</Timestamp><DateUtc dt:dt="string">2014-12-11T16:45:22Z</DateUtc></StartTime><FrequencyChanges><FrequencyChange><Frequency dt:dt="r8">2327510000</Frequency><Timestamp dt:dt="r8">256619635300</Timestamp><Current dt:dt="r8">0</Current><DateUtc dt:dt="string">2014-12-11T16:45:22Z</DateUtc></FrequencyChange></FrequencyChanges></Clock>\n,v4_BCL_f2_g-10-1,60.001,1.0.0.236,1,-607676302,2.0.10.242,2.0.10.242,12-11-2014,12/11/2014 4:45:22 PM,11:45:22,2.0.10.147,74,,,,,,20,1,20,,,,1,,,g,,0.251,,,9.6,,,30.54,,,,,,TrialProc1,,,,vowel 1,vowel 2,1,283,311913,Block2,g1_f0_9_60_f2_30_54_dur_0_251_num_286.wav,,,,
v4_BCL_f2_g,10,1,<?xml version="1.0"?>\n<Clock xmlns:dt="urn:schemas-microsoft-com:datatypes"><Description dt:dt="string">E-Prime Primary Realtime Clock</Description><StartTime><Timestamp dt:dt="int">0</Timestamp><DateUtc dt:dt="string">2014-12-11T16:45:22Z</DateUtc></StartTime><FrequencyChanges><FrequencyChange><Frequency dt:dt="r8">2327510000</Frequency><Timestamp dt:dt="r8">256619635300</Timestamp><Current dt:dt="r8">0</Current><DateUtc dt:dt="string">2014-12-11T16:45:22Z</DateUtc></FrequencyChange></FrequencyChanges></Clock>\n,v4_BCL_f2_g-10-1,60.001,1.0.0.236,1,-607676302,2.0.10.242,2.0.10.242,12-11-2014,12/11/2014 4:45:22 PM,11:45:22,2.0.10.147,75,,,,,,21,1,21,,,,1,,,g,,0.246,,,9.08,,,31.6,,,,,,TrialProc1,,,,vowel 1,vowel 2,2,234,312964,Block2,g1_f0_9_08_f2_31_60_dur_0_246_num_252.wav,,,,
v4_BCL_f2_g,10,1,<?xml version="1.0"?>\n<Clock xmlns:dt="urn:schemas-microsoft-com:datatypes"><Description dt:dt="string">E-Prime Primary Realtime Clock</Description><StartTime><Timestamp dt:dt="int">0</Timestamp><DateUtc dt:dt="string">2014-12-11T16:45:22Z</DateUtc></StartTime><FrequencyChanges><FrequencyChange><Frequency dt:dt="r8">2327510000</Frequency><Timestamp dt:dt="r8">256619635300</Timestamp><Current dt:dt="r8">0</Current><DateUtc dt:dt="string">2014-12-11T16:45:22Z</DateUtc></FrequencyChange></FrequencyChanges></Clock>\n,v4_BCL_f2_g-10-1,60.001,1.0.0.236,1,-607676302,2.0.10.242,2.0.10.242,12-11-2014,12/11/2014 4:45:22 PM,11:45:22,2.0.10.147,76,,,,,,22,1,22,,,,1,,,g,,0.25,,,9.32,,,31.61,,,,,,TrialProc1,,,,vowel 1,vowel 2,1,361,314141,Block2,g1_f0_9_32_f2_31_61_dur_0_250_num_260.wav,,,,
v4_BCL_f2_g,10,1,<?xml version="1.0"?>\n<Clock xmlns:dt="urn:schemas-microsoft-com:datatypes"><Description dt:dt="string">E-Prime Primary Realtime Clock</Description><StartTime><Timestamp dt:dt="int">0</Timestamp><DateUtc dt:dt="string">2014-12-11T16:45:22Z</DateUtc></StartTime><FrequencyChanges><FrequencyChange><Frequency dt:dt="r8">2327510000</Frequency><Timestamp dt:dt="r8">256619635300</Timestamp><Current dt:dt="r8">0</Current><DateUtc dt:dt="string">2014-12-11T16:45:22Z</DateUtc></FrequencyChange></FrequencyChanges></Clock>\n,v4_BCL_f2_g-10-1,60.001,1.0.0.236,1,-607676302,2.0.10.242,2.0.10.242,12-11-2014,12/11/2014 4:45:22 PM,11:45:22,2.0.10.147,77,,,,,,23,1,23,,,,1,,,g,,0.252,,,9.02,,,31.38,,,,,,TrialProc1,,,,vowel 1,vowel 2,1,464,315427,Block2,g1_f0_9_02_f2_31_38_dur_0_252_num_249.wav,,,,
v4_BCL_f2_g,10,1,<?xml version="1.0"?>\n<Clock xmlns:dt="urn:schemas-microsoft-com:datatypes"><Description dt:dt="string">E-Prime Primary Realtime Clock</Description><StartTime><Timestamp dt:dt="int">0</Timestamp><DateUtc dt:dt="string">2014-12-11T16:45:22Z</DateUtc></StartTime><FrequencyChanges><FrequencyChange><Frequency dt:dt="r8">2327510000</Frequency><Timestamp dt:dt="r8">256619635300</Timestamp><Current dt:dt="r8">0</Current><DateUtc dt:dt="string">2014-12-11T16:45:22Z</DateUtc></FrequencyChange></FrequencyChanges></Clock>\n,v4_BCL_f2_g-10-1,60.001,1.0.0.236,1,-607676302,2.0.10.242,2.0.10.242,12-11-2014,12/11/2014 4:45:22 PM,11:45:22,2.0.10.147,78,,,,,,24,1,24,,,,2,,,g,,0.252,,,8.68,,,29.16,,,,,,TrialProc1,,,,vowel 1,vowel 2,2,405,316652,Block2,g2_f0_8_68_f2_29_16_dur_0_252_num_559.wav,,,,
v4_BCL_f2_g,10,1,<?xml version="1.0"?>\n<Clock xmlns:dt="urn:schemas-microsoft-com:datatypes"><Description dt:dt="string">E-Prime Primary Realtime Clock</Description><StartTime><Timestamp dt:dt="int">0</Timestamp><DateUtc dt:dt="string">2014-12-11T16:45:22Z</DateUtc></StartTime><FrequencyChanges><FrequencyChange><Frequency dt:dt="r8">2327510000</Frequency><Timestamp dt:dt="r8">256619635300</Timestamp><Current dt:dt="r8">0</Current><DateUtc dt:dt="string">2014-12-11T16:45:22Z</DateUtc></FrequencyChange></FrequencyChanges></Clock>\n,v4_BCL_f2_g-10-1,60.001,1.0.0.236,1,-607676302,2.0.10.242,2.0.10.242,12-11-2014,12/11/2014 4:45:22 PM,11:45:22,2.0.10.147,79,,,,,,25,1,25,,,,2,,,g,,0.247,,,8.62,,,29.65,,,,,,TrialProc1,,,,vowel 1,vowel 2,1,334,317797,Block2,g2_f0_8_62_f2_29_65_dur_0_247_num_570.wav,,,,
v4_BCL_f2_g,10,1,<?xml version="1.0"?>\n<Clock xmlns:dt="urn:schemas-microsoft-com:datatypes"><Description dt:dt="string">E-Prime Primary Realtime Clock</Description><StartTime><Timestamp dt:dt="int">0</Timestamp><DateUtc dt:dt="string">2014-12-11T16:45:22Z</DateUtc></StartTime><FrequencyChanges><FrequencyChange><Frequency dt:dt="r8">2327510000</Frequency><Timestamp dt:dt="r8">256619635300</Timestamp><Current dt:dt="r8">0</Current><DateUtc dt:dt="string">2014-12-11T16:45:22Z</DateUtc></FrequencyChange></FrequencyChanges></Clock>\n,v4_BCL_f2_g-10-1,60.001,1.0.0.236,1,-607676302,2.0.10.242,2.0.10.242,12-11-2014,12/11/2014 4:45:22 PM,11:45:22,2.0.10.147,80,,,,,,26,1,26,,,,2,,,g,,0.244,,,8.55,,,29.47,,,,,,TrialProc1,,,,vowel 1,vowel 2,2,385,318998,Block2,g2_f0_8_55_f2_29_47_dur_0_244_num_536.wav,,,,
v4_BCL_f2_g,10,1,<?xml version="1.0"?>\n<Clock xmlns:dt="urn:schemas-microsoft-com:datatypes"><Description dt:dt="string">E-Prime Primary Realtime Clock</Description><StartTime><Timestamp dt:dt="int">0</Timestamp><DateUtc dt:dt="string">2014-12-11T16:45:22Z</DateUtc></StartTime><FrequencyChanges><FrequencyChange><Frequency dt:dt="r8">2327510000</Frequency><Timestamp dt:dt="r8">256619635300</Timestamp><Current dt:dt="r8">0</Current><DateUtc dt:dt="string">2014-12-11T16:45:22Z</DateUtc></FrequencyChange></FrequencyChanges></Clock>\n,v4_BCL_f2_g-10-1,60.001,1.0.0.236,1,-607676302,2.0.10.242,2.0.10.242,12-11-2014,12/11/2014 4:45:22 PM,11:45:22,2.0.10.147,81,,,,,,27,1,27,,,,1,,,g,,0.247,,,9.49,,,30.56,,,,,,TrialProc1,,,,vowel 1,vowel 2,1,228,320041,Block2,g1_f0_9_49_f2_30_56_dur_0_247_num_212.wav,,,,
v4_BCL_f2_g,10,1,<?xml version="1.0"?>\n<Clock xmlns:dt="urn:schemas-microsoft-com:datatypes"><Description dt:dt="string">E-Prime Primary Realtime Clock</Description><StartTime><Timestamp dt:dt="int">0</Timestamp><DateUtc dt:dt="string">2014-12-11T16:45:22Z</DateUtc></StartTime><FrequencyChanges><FrequencyChange><Frequency dt:dt="r8">2327510000</Frequency><Timestamp dt:dt="r8">256619635300</Timestamp><Current dt:dt="r8">0</Current><DateUtc dt:dt="string">2014-12-11T16:45:22Z</DateUtc></FrequencyChange></FrequencyChanges></Clock>\n,v4_BCL_f2_g-10-1,60.001,1.0.0.236,1,-607676302,2.0.10.242,2.0.10.242,12-11-2014,12/11/2014 4:45:22 PM,11:45:22,2.0.10.147,82,,,,,,28,1,28,,,,2,,,g,,0.249,,,9.36,,,29.1,,,,,,TrialProc1,,,,vowel 1,vowel 2,1,365,321228,Block2,g2_f0_9_36_f2_29_10_dur_0_249_num_563.wav,,,,
v4_BCL_f2_g,10,1,<?xml version="1.0"?>\n<Clock xmlns:dt="urn:schemas-microsoft-com:datatypes"><Description dt:dt="string">E-Prime Primary Realtime Clock</Description><StartTime><Timestamp dt:dt="int">0</Timestamp><DateUtc dt:dt="string">2014-12-11T16:45:22Z</DateUtc></StartTime><FrequencyChanges><FrequencyChange><Frequency dt:dt="r8">2327510000</Frequency><Timestamp dt:dt="r8">256619635300</Timestamp><Current dt:dt="r8">0</Current><DateUtc dt:dt="string">2014-12-11T16:45:22Z</DateUtc></FrequencyChange></FrequencyChanges></Clock>\n,v4_BCL_f2_g-10-1,60.001,1.0.0.236,1,-607676302,2.0.10.242,2.0.10.242,12-11-2014,12/11/2014 4:45:22 PM,11:45:22,2.0.10.147,83,,,,,,29,1,29,,,,1,,,g,,0.25,,,9.24,,,31.62,,,,,,TrialProc1,,,,vowel 1,vowel 2,1,371,322417,Block2,g1_f0_9_24_f2_31_62_dur_0_250_num_245.wav,,,,
v4_BCL_f2_g,10,1,<?xml version="1.0"?>\n<Clock xmlns:dt="urn:schemas-microsoft-com:datatypes"><Description dt:dt="string">E-Prime Primary Realtime Clock</Description><StartTime><Timestamp dt:dt="int">0</Timestamp><DateUtc dt:dt="string">2014-12-11T16:45:22Z</DateUtc></StartTime><FrequencyChanges><FrequencyChange><Frequency dt:dt="r8">2327510000</Frequency><Timestamp dt:dt="r8">256619635300</Timestamp><Current dt:dt="r8">0</Current><DateUtc dt:dt="string">2014-12-11T16:45:22Z</DateUtc></FrequencyChange></FrequencyChanges></Clock>\n,v4_BCL_f2_g-10-1,60.001,1.0.0.236,1,-607676302,2.0.10.242,2.0.10.242,12-11-2014,12/11/2014 4:45:22 PM,11:45:22,2.0.10.147,84,,,,,,30,1,30,,,,1,,,g,,0.255,,,9.84,,,30.95,,,,,,TrialProc1,,,,vowel 1,vowel 2,1,205,323435,Block2,g1_f0_9_84_f2_30_95_dur_0_255_num_273.wav,,,,
v4_BCL_f2_g,10,1,<?xml version="1.0"?>\n<Clock xmlns:dt="urn:schemas-microsoft-com:datatypes"><Description dt:dt="string">E-Prime Primary Realtime Clock</Description><StartTime><Timestamp dt:dt="int">0</Timestamp><DateUtc dt:dt="string">2014-12-11T16:45:22Z</DateUtc></StartTime><FrequencyChanges><FrequencyChange><Frequency dt:dt="r8">2327510000</Frequency><Timestamp dt:dt="r8">256619635300</Timestamp><Current dt:dt="r8">0</Current><DateUtc dt:dt="string">2014-12-11T16:45:22Z</DateUtc></FrequencyChange></FrequencyChanges></Clock>\n,v4_BCL_f2_g-10-1,60.001,1.0.0.236,1,-607676302,2.0.10.242,2.0.10.242,12-11-2014,12/11/2014 4:45:22 PM,11:45:22,2.0.10.147,85,,,,,,31,1,31,,,,1,,,g,,0.248,,,9.1,,,30.84,,,,,,TrialProc1,,,,vowel 1,vowel 2,2,472,324718,Block2,g1_f0_9_10_f2_30_84_dur_0_248_num_232.wav,,,,
v4_BCL_f2_g,10,1,<?xml version="1.0"?>\n<Clock xmlns:dt="urn:schemas-microsoft-com:datatypes"><Description dt:dt="string">E-Prime Primary Realtime Clock</Description><StartTime><Timestamp dt:dt="int">0</Timestamp><DateUtc dt:dt="string">2014-12-11T16:45:22Z</DateUtc></StartTime><FrequencyChanges><FrequencyChange><Frequency dt:dt="r8">2327510000</Frequency><Timestamp dt:dt="r8">256619635300</Timestamp><Current dt:dt="r8">0</Current><DateUtc dt:dt="string">2014-12-11T16:45:22Z</DateUtc></FrequencyChange></FrequencyChanges></Clock>\n,v4_BCL_f2_g-10-1,60.001,1.0.0.236,1,-607676302,2.0.10.242,2.0.10.242,12-11-2014,12/11/2014 4:45:22 PM,11:45:22,2.0.10.147,86,,,,,,32,1,32,,,,1,,,g,,0.257,,,8.55,,,31.79,,,,,,TrialProc1,,,,vowel 1,vowel 2,1,325,325855,Block2,g1_f0_8_55_f2_31_79_dur_0_257_num_247.wav,,,,
v4_BCL_f2_g,10,1,<?xml version="1.0"?>\n<Clock xmlns:dt="urn:schemas-microsoft-com:datatypes"><Description dt:dt="string">E-Prime Primary Realtime Clock</Description><StartTime><Timestamp dt:dt="int">0</Timestamp><DateUtc dt:dt="string">2014-12-11T16:45:22Z</DateUtc></StartTime><FrequencyChanges><FrequencyChange><Frequency dt:dt="r8">2327510000</Frequency><Timestamp dt:dt="r8">256619635300</Timestamp><Current dt:dt="r8">0</Current><DateUtc dt:dt="string">2014-12-11T16:45:22Z</DateUtc></FrequencyChange></FrequencyChanges></Clock>\n,v4_BCL_f2_g-10-1,60.001,1.0.0.236,1,-607676302,2.0.10.242,2.0.10.242,12-11-2014,12/11/2014 4:45:22 PM,11:45:22,2.0.10.147,87,,,,,,33,1,33,,,,2,,,g,,0.247,,,8.92,,,29.35,,,,,,TrialProc1,,,,vowel 1,vowel 2,1,361,327024,Block2,g2_f0_8_92_f2_29_35_dur_0_247_num_578.wav,,,,
v4_BCL_f2_g,10,1,<?xml version="1.0"?>\n<Clock xmlns:dt="urn:schemas-microsoft-com:datatypes"><Description dt:dt="string">E-Prime Primary Realtime Clock</Description><StartTime><Timestamp dt:dt="int">0</Timestamp><DateUtc dt:dt="string">2014-12-11T16:45:22Z</DateUtc></StartTime><FrequencyChanges><FrequencyChange><Frequency dt:dt="r8">2327510000</Frequency><Timestamp dt:dt="r8">256619635300</Timestamp><Current dt:dt="r8">0</Current><DateUtc dt:dt="string">2014-12-11T16:45:22Z</DateUtc></FrequencyChange></FrequencyChanges></Clock>\n,v4_BCL_f2_g-10-1,60.001,1.0.0.236,1,-607676302,2.0.10.242,2.0.10.242,12-11-2014,12/11/2014 4:45:22 PM,11:45:22,2.0.10.147,88,,,,,,34,1,34,,,,2,,,g,,0.249,,,8.26,,,29.92,,,,,,TrialProc1,,,,vowel 1,vowel 2,1,462,328292,Block2,g2_f0_8_26_f2_29_92_dur_0_249_num_577.wav,,,,
v4_BCL_f2_g,10,1,<?xml version="1.0"?>\n<Clock xmlns:dt="urn:schemas-microsoft-com:datatypes"><Description dt:dt="string">E-Prime Primary Realtime Clock</Description><StartTime><Timestamp dt:dt="int">0</Timestamp><DateUtc dt:dt="string">2014-12-11T16:45:22Z</DateUtc></StartTime><FrequencyChanges><FrequencyChange><Frequency dt:dt="r8">2327510000</Frequency><Timestamp dt:dt="r8">256619635300</Timestamp><Current dt:dt="r8">0</Current><DateUtc dt:dt="string">2014-12-11T16:45:22Z</DateUtc></FrequencyChange></FrequencyChanges></Clock>\n,v4_BCL_f2_g-10-1,60.001,1.0.0.236,1,-607676302,2.0.10.242,2.0.10.242,12-11-2014,12/11/2014 4:45:22 PM,11:45:22,2.0.10.147,89,,,,,,35,1,35,,,,1,,,g,,0.254,,,8.58,,,31.4,,,,,,TrialProc1,,,,vowel 1,vowel 2,1,427,329540,Block2,g1_f0_8_58_f2_31_40_dur_0_254_num_229.wav,,,,
v4_BCL_f2_g,10,1,<?xml version="1.0"?>\n<Clock xmlns:dt="urn:schemas-microsoft-com:datatypes"><Description dt:dt="string">E-Prime Primary Realtime Clock</Description><StartTime><Timestamp dt:dt="int">0</Timestamp><DateUtc dt:dt="string">2014-12-11T16:45:22Z</DateUtc></StartTime><FrequencyChanges><FrequencyChange><Frequency dt:dt="r8">2327510000</Frequency><Timestamp dt:dt="r8">256619635300</Timestamp><Current dt:dt="r8">0</Current><DateUtc dt:dt="string">2014-12-11T16:45:22Z</DateUtc></FrequencyChange></FrequencyChanges></Clock>\n,v4_BCL_f2_g-10-1,60.001,1.0.0.236,1,-607676302,2.0.10.242,2.0.10.242,12-11-2014,12/11/2014 4:45:22 PM,11:45:22,2.0.10.147,90,,,,,,36,1,36,,,,2,,,g,,0.251,,,9.32,,,29.64,,,,,,TrialProc1,,,,vowel 1,vowel 2,1,277,330623,Block2,g2_f0_9_32_f2_29_64_dur_0_251_num_503.wav,,,,
v4_BCL_f2_g,10,1,<?xml version="1.0"?>\n<Clock xmlns:dt="urn:schemas-microsoft-com:datatypes"><Description dt:dt="string">E-Prime Primary Realtime Clock</Description><StartTime><Timestamp dt:dt="int">0</Timestamp><DateUtc dt:dt="string">2014-12-11T16:45:22Z</DateUtc></StartTime><FrequencyChanges><FrequencyChange><Frequency dt:dt="r8">2327510000</Frequency><Timestamp dt:dt="r8">256619635300</Timestamp><Current dt:dt="r8">0</Current><DateUtc dt:dt="string">2014-12-11T16:45:22Z</DateUtc></FrequencyChange></FrequencyChanges></Clock>\n,v4_BCL_f2_g-10-1,60.001,1.0.0.236,1,-607676302,2.0.10.242,2.0.10.242,12-11-2014,12/11/2014 4:45:22 PM,11:45:22,2.0.10.147,91,,,,,,37,1,37,,,,1,,,g,,0.248,,,10.15,,,30.34,,,,,,TrialProc1,,,,vowel 1,vowel 2,1,284,331714,Block2,g1_f0_10_15_f2_30_34_dur_0_248_num_219.wav,,,,
v4_BCL_f2_g,10,1,<?xml version="1.0"?>\n<Clock xmlns:dt="urn:schemas-microsoft-com:datatypes"><Description dt:dt="string">E-Prime Primary Realtime Clock</Description><StartTime><Timestamp dt:dt="int">0</Timestamp><DateUtc dt:dt="string">2014-12-11T16:45:22Z</DateUtc></StartTime><FrequencyChanges><FrequencyChange><Frequency dt:dt="r8">2327510000</Frequency><Timestamp dt:dt="r8">256619635300</Timestamp><Current dt:dt="r8">0</Current><DateUtc dt:dt="string">2014-12-11T16:45:22Z</DateUtc></FrequencyChange></FrequencyChanges></Clock>\n,v4_BCL_f2_g-10-1,60.001,1.0.0.236,1,-607676302,2.0.10.242,2.0.10.242,12-11-2014,12/11/2014 4:45:22 PM,11:45:22,2.0.10.147,92,,,,,,38,1,38,,,,1,,,g,,0.253,,,9.51,,,30.92,,,,,,TrialProc1,,,,vowel 1,vowel 2,2,642,333172,Block2,g1_f0_9_51_f2_30_92_dur_0_253_num_214.wav,,,,
v4_BCL_f2_g,10,1,<?xml version="1.0"?>\n<Clock xmlns:dt="urn:schemas-microsoft-com:datatypes"><Description dt:dt="string">E-Prime Primary Realtime Clock</Description><StartTime><Timestamp dt:dt="int">0</Timestamp><DateUtc dt:dt="string">2014-12-11T16:45:22Z</DateUtc></StartTime><FrequencyChanges><FrequencyChange><Frequency dt:dt="r8">2327510000</Frequency><Timestamp dt:dt="r8">256619635300</Timestamp><Current dt:dt="r8">0</Current><DateUtc dt:dt="string">2014-12-11T16:45:22Z</DateUtc></FrequencyChange></FrequencyChanges></Clock>\n,v4_BCL_f2_g-10-1,60.001,1.0.0.236,1,-607676302,2.0.10.242,2.0.10.242,12-11-2014,12/11/2014 4:45:22 PM,11:45:22,2.0.10.147,93,,,,,,39,1,39,,,,2,,,g,,0.25,,,9.45,,,29.43,,,,,,TrialProc1,,,,vowel 1,vowel 2,2,422,334418,Block2,g2_f0_9_45_f2_29_43_dur_0_250_num_564.wav,,,,
v4_BCL_f2_g,10,1,<?xml version="1.0"?>\n<Clock xmlns:dt="urn:schemas-microsoft-com:datatypes"><Description dt:dt="string">E-Prime Primary Realtime Clock</Description><StartTime><Timestamp dt:dt="int">0</Timestamp><DateUtc dt:dt="string">2014-12-11T16:45:22Z</DateUtc></StartTime><FrequencyChanges><FrequencyChange><Frequency dt:dt="r8">2327510000</Frequency><Timestamp dt:dt="r8">256619635300</Timestamp><Current dt:dt="r8">0</Current><DateUtc dt:dt="string">2014-12-11T16:45:22Z</DateUtc></FrequencyChange></FrequencyChanges></Clock>\n,v4_BCL_f2_g-10-1,60.001,1.0.0.236,1,-607676302,2.0.10.242,2.0.10.242,12-11-2014,12/11/2014 4:45:22 PM,11:45:22,2.0.10.147,94,,,,,,40,1,40,,,,2,,,g,,0.248,,,8.63,,,28.8,,,,,,TrialProc1,,,,vowel 1,vowel 2,2,280,335510,Block2,g2_f0_8_63_f2_28_80_dur_0_248_num_513.wav,,,,
v4_BCL_f2_g,10,1,<?xml version="1.0"?>\n<Clock xmlns:dt="urn:schemas-microsoft-com:datatypes"><Description dt:dt="string">E-Prime Primary Realtime Clock</Description><StartTime><Timestamp dt:dt="int">0</Timestamp><DateUtc dt:dt="string">2014-12-11T16:45:22Z</DateUtc></StartTime><FrequencyChanges><FrequencyChange><Frequency dt:dt="r8">2327510000</Frequency><Timestamp dt:dt="r8">256619635300</Timestamp><Current dt:dt="r8">0</Current><DateUtc dt:dt="string">2014-12-11T16:45:22Z</DateUtc></FrequencyChange></FrequencyChanges></Clock>\n,v4_BCL_f2_g-10-1,60.001,1.0.0.236,1,-607676302,2.0.10.242,2.0.10.242,12-11-2014,12/11/2014 4:45:22 PM,11:45:22,2.0.10.147,95,,,,,,41,1,41,,,,2,,,g,,0.251,,,8.43,,,29.36,,,,,,TrialProc1,,,,vowel 1,vowel 2,2,337,336667,Block2,g2_f0_8_43_f2_29_36_dur_0_251_num_535.wav,,,,
v4_BCL_f2_g,10,1,<?xml version="1.0"?>\n<Clock xmlns:dt="urn:schemas-microsoft-com:datatypes"><Description dt:dt="string">E-Prime Primary Realtime Clock</Description><StartTime><Timestamp dt:dt="int">0</Timestamp><DateUtc dt:dt="string">2014-12-11T16:45:22Z</DateUtc></StartTime><FrequencyChanges><FrequencyChange><Frequency dt:dt="r8">2327510000</Frequency><Timestamp dt:dt="r8">256619635300</Timestamp><Current dt:dt="r8">0</Current><DateUtc dt:dt="string">2014-12-11T16:45:22Z</DateUtc></FrequencyChange></FrequencyChanges></Clock>\n,v4_BCL_f2_g-10-1,60.001,1.0.0.236,1,-607676302,2.0.10.242,2.0.10.242,12-11-2014,12/11/2014 4:45:22 PM,11:45:22,2.0.10.147,96,,,,,,42,1,42,,,,1,,,g,,0.251,,,9.15,,,31.7,,,,,,TrialProc1,,,,vowel 1,vowel 2,1,334,337814,Block2,g1_f0_9_15_f2_31_70_dur_0_251_num_263.wav,,,,
v4_BCL_f2_g,10,1,<?xml version="1.0"?>\n<Clock xmlns:dt="urn:schemas-microsoft-com:datatypes"><Description dt:dt="string">E-Prime Primary Realtime Clock</Description><StartTime><Timestamp dt:dt="int">0</Timestamp><DateUtc dt:dt="string">2014-12-11T16:45:22Z</DateUtc></StartTime><FrequencyChanges><FrequencyChange><Frequency dt:dt="r8">2327510000</Frequency><Timestamp dt:dt="r8">256619635300</Timestamp><Current dt:dt="r8">0</Current><DateUtc dt:dt="string">2014-12-11T16:45:22Z</DateUtc></FrequencyChange></FrequencyChanges></Clock>\n,v4_BCL_f2_g-10-1,60.001,1.0.0.236,1,-607676302,2.0.10.242,2.0.10.242,12-11-2014,12/11/2014 4:45:22 PM,11:45:22,2.0.10.147,97,,,,,,43,1,43,,,,2,,,g,,0.251,,,9.07,,,29.67,,,,,,TrialProc1,,,,vowel 1,vowel 2,1,561,339191,Block2,g2_f0_9_07_f2_29_67_dur_0_251_num_516.wav,,,,
v4_BCL_f2_g,10,1,<?xml version="1.0"?>\n<Clock xmlns:dt="urn:schemas-microsoft-com:datatypes"><Description dt:dt="string">E-Prime Primary Realtime Clock</Description><StartTime><Timestamp dt:dt="int">0</Timestamp><DateUtc dt:dt="string">2014-12-11T16:45:22Z</DateUtc></StartTime><FrequencyChanges><FrequencyChange><Frequency dt:dt="r8">2327510000</Frequency><Timestamp dt:dt="r8">256619635300</Timestamp><Current dt:dt="r8">0</Current><DateUtc dt:dt="string">2014-12-11T16:45:22Z</DateUtc></FrequencyChange></FrequencyChanges></Clock>\n,v4_BCL_f2_g-10-1,60.001,1.0.0.236,1,-607676302,2.0.10.242,2.0.10.242,12-11-2014,12/11/2014 4:45:22 PM,11:45:22,2.0.10.147,98,,,,,,44,1,44,,,,2,,,g,,0.251,,,8.51,,,29.05,,,,,,TrialProc1,,,,vowel 1,vowel 2,1,534,340547,Block2,g2_f0_8_51_f2_29_05_dur_0_251_num_521.wav,,,,
v4_BCL_f2_g,10,1,<?xml version="1.0"?>\n<Clock xmlns:dt="urn:schemas-microsoft-com:datatypes"><Description dt:dt="string">E-Prime Primary Realtime Clock</Description><StartTime><Timestamp dt:dt="int">0</Timestamp><DateUtc dt:dt="string">2014-12-11T16:45:22Z</DateUtc></StartTime><FrequencyChanges><FrequencyChange><Frequency dt:dt="r8">2327510000</Frequency><Timestamp dt:dt="r8">256619635300</Timestamp><Current dt:dt="r8">0</Current><DateUtc dt:dt="string">2014-12-11T16:45:22Z</DateUtc></FrequencyChange></FrequencyChanges></Clock>\n,v4_BCL_f2_g-10-1,60.001,1.0.0.236,1,-607676302,2.0.10.242,2.0.10.242,12-11-2014,12/11/2014 4:45:22 PM,11:45:22,2.0.10.147,99,,,,,,45,1,45,,,,1,,,g,,0.25,,,8.93,,,30.91,,,,,,TrialProc1,,,,vowel 1,vowel 2,1,797,342160,Block2,g1_f0_8_93_f2_30_91_dur_0_250_num_215.wav,,,,
v4_BCL_f2_g,10,1,<?xml version="1.0"?>\n<Clock xmlns:dt="urn:schemas-microsoft-com:datatypes"><Description dt:dt="string">E-Prime Primary Realtime Clock</Description><StartTime><Timestamp dt:dt="int">0</Timestamp><DateUtc dt:dt="string">2014-12-11T16:45:22Z</DateUtc></StartTime><FrequencyChanges><FrequencyChange><Frequency dt:dt="r8">2327510000</Frequency><Timestamp dt:dt="r8">256619635300</Timestamp><Current dt:dt="r8">0</Current><DateUtc dt:dt="string">2014-12-11T16:45:22Z</DateUtc></FrequencyChange></FrequencyChanges></Clock>\n,v4_BCL_f2_g-10-1,60.001,1.0.0.236,1,-607676302,2.0.10.242,2.0.10.242,12-11-2014,12/11/2014 4:45:22 PM,11:45:22,2.0.10.147,100,,,,,,46,1,46,,,,2,,,g,,0.247,,,10,,,28.67,,,,,,TrialProc1,,,,vowel 1,vowel 2,1,578,343541,Block2,g2_f0_10_00_f2_28_67_dur_0_247_num_527.wav,,,,
v4_BCL_f2_g,10,1,<?xml version="1.0"?>\n<Clock xmlns:dt="urn:schemas-microsoft-com:datatypes"><Description dt:dt="string">E-Prime Primary Realtime Clock</Description><StartTime><Timestamp dt:dt="int">0</Timestamp><DateUtc dt:dt="string">2014-12-11T16:45:22Z</DateUtc></StartTime><FrequencyChanges><FrequencyChange><Frequency dt:dt="r8">2327510000</Frequency><Timestamp dt:dt="r8">256619635300</Timestamp><Current dt:dt="r8">0</Current><DateUtc dt:dt="string">2014-12-11T16:45:22Z</DateUtc></FrequencyChange></FrequencyChanges></Clock>\n,v4_BCL_f2_g-10-1,60.001,1.0.0.236,1,-607676302,2.0.10.242,2.0.10.242,12-11-2014,12/11/2014 4:45:22 PM,11:45:22,2.0.10.147,101,,,,,,47,1,47,,,,1,,,g,,0.249,,,10.75,,,30.3,,,,,,TrialProc1,,,,vowel 1,vowel 2,1,348,344694,Block2,g1_f0_10_75_f2_30_30_dur_0_249_num_227.wav,,,,
v4_BCL_f2_g,10,1,<?xml version="1.0"?>\n<Clock xmlns:dt="urn:schemas-microsoft-com:datatypes"><Description dt:dt="string">E-Prime Primary Realtime Clock</Description><StartTime><Timestamp dt:dt="int">0</Timestamp><DateUtc dt:dt="string">2014-12-11T16:45:22Z</DateUtc></StartTime><FrequencyChanges><FrequencyChange><Frequency dt:dt="r8">2327510000</Frequency><Timestamp dt:dt="r8">256619635300</Timestamp><Current dt:dt="r8">0</Current><DateUtc dt:dt="string">2014-12-11T16:45:22Z</DateUtc></FrequencyChange></FrequencyChanges></Clock>\n,v4_BCL_f2_g-10-1,60.001,1.0.0.236,1,-607676302,2.0.10.242,2.0.10.242,12-11-2014,12/11/2014 4:45:22 PM,11:45:22,2.0.10.147,102,,,,,,48,1,48,,,,2,,,g,,0.255,,,8.52,,,28.92,,,,,,TrialProc1,,,,vowel 1,vowel 2,2,487,346000,Block2,g2_f0_8_52_f2_28_92_dur_0_255_num_574.wav,,,,
v4_BCL_f2_g,10,1,<?xml version="1.0"?>\n<Clock xmlns:dt="urn:schemas-microsoft-com:datatypes"><Description dt:dt="string">E-Prime Primary Realtime Clock</Description><StartTime><Timestamp dt:dt="int">0</Timestamp><DateUtc dt:dt="string">2014-12-11T16:45:22Z</DateUtc></StartTime><FrequencyChanges><FrequencyChange><Frequency dt:dt="r8">2327510000</Frequency><Timestamp dt:dt="r8">256619635300</Timestamp><Current dt:dt="r8">0</Current><DateUtc dt:dt="string">2014-12-11T16:45:22Z</DateUtc></FrequencyChange></FrequencyChanges></Clock>\n,v4_BCL_f2_g-10-1,60.001,1.0.0.236,1,-607676302,2.0.10.242,2.0.10.242,12-11-2014,12/11/2014 4:45:22 PM,11:45:22,2.0.10.147,103,,,,,,49,1,49,,,,1,,,g,,0.248,,,8.64,,,31.38,,,,,,TrialProc1,,,,vowel 1,vowel 2,2,378,347191,Block2,g1_f0_8_64_f2_31_38_dur_0_248_num_284.wav,,,,
v4_BCL_f2_g,10,1,<?xml version="1.0"?>\n<Clock xmlns:dt="urn:schemas-microsoft-com:datatypes"><Description dt:dt="string">E-Prime Primary Realtime Clock</Description><StartTime><Timestamp dt:dt="int">0</Timestamp><DateUtc dt:dt="string">2014-12-11T16:45:22Z</DateUtc></StartTime><FrequencyChanges><FrequencyChange><Frequency dt:dt="r8">2327510000</Frequency><Timestamp dt:dt="r8">256619635300</Timestamp><Current dt:dt="r8">0</Current><DateUtc dt:dt="string">2014-12-11T16:45:22Z</DateUtc></FrequencyChange></FrequencyChanges></Clock>\n,v4_BCL_f2_g-10-1,60.001,1.0.0.236,1,-607676302,2.0.10.242,2.0.10.242,12-11-2014,12/11/2014 4:45:22 PM,11:45:22,2.0.10.147,104,,,,,,50,1,50,,,,1,,,g,,0.253,,,9.31,,,30.85,,,,,,TrialProc1,,,,vowel 1,vowel 2,2,581,348577,Block2,g1_f0_9_31_f2_30_85_dur_0_253_num_270.wav,,,,
v4_BCL_f2_g,10,1,<?xml version="1.0"?>\n<Clock xmlns:dt="urn:schemas-microsoft-com:datatypes"><Description dt:dt="string">E-Prime Primary Realtime Clock</Description><StartTime><Timestamp dt:dt="int">0</Timestamp><DateUtc dt:dt="string">2014-12-11T16:45:22Z</DateUtc></StartTime><FrequencyChanges><FrequencyChange><Frequency dt:dt="r8">2327510000</Frequency><Timestamp dt:dt="r8">256619635300</Timestamp><Current dt:dt="r8">0</Current><DateUtc dt:dt="string">2014-12-11T16:45:22Z</DateUtc></FrequencyChange></FrequencyChanges></Clock>\n,v4_BCL_f2_g-10-1,60.001,1.0.0.236,1,-607676302,2.0.10.242,2.0.10.242,12-11-2014,12/11/2014 4:45:22 PM,11:45:22,2.0.10.147,105,,,,,,51,1,51,,,,2,,,g,,0.249,,,8.07,,,29.2,,,,,,TrialProc1,,,,vowel 1,vowel 2,2,955,350351,Block2,g2_f0_8_07_f2_29_20_dur_0_249_num_597.wav,,,,
v4_BCL_f2_g,10,1,<?xml version="1.0"?>\n<Clock xmlns:dt="urn:schemas-microsoft-com:datatypes"><Description dt:dt="string">E-Prime Primary Realtime Clock</Description><StartTime><Timestamp dt:dt="int">0</Timestamp><DateUtc dt:dt="string">2014-12-11T16:45:22Z</DateUtc></StartTime><FrequencyChanges><FrequencyChange><Frequency dt:dt="r8">2327510000</Frequency><Timestamp dt:dt="r8">256619635300</Timestamp><Current dt:dt="r8">0</Current><DateUtc dt:dt="string">2014-12-11T16:45:22Z</DateUtc></FrequencyChange></FrequencyChanges></Clock>\n,v4_BCL_f2_g-10-1,60.001,1.0.0.236,1,-607676302,2.0.10.242,2.0.10.242,12-11-2014,12/11/2014 4:45:22 PM,11:45:22,2.0.10.147,106,,,,,,52,1,52,,,,2,,,g,,0.246,,,8.6,,,29.73,,,,,,TrialProc1,,,,vowel 1,vowel 2,2,429,351592,Block2,g2_f0_8_60_f2_29_73_dur_0_246_num_575.wav,,,,
v4_BCL_f2_g,10,1,<?xml version="1.0"?>\n<Clock xmlns:dt="urn:schemas-microsoft-com:datatypes"><Description dt:dt="string">E-Prime Primary Realtime Clock</Description><StartTime><Timestamp dt:dt="int">0</Timestamp><DateUtc dt:dt="string">2014-12-11T16:45:22Z</DateUtc></StartTime><FrequencyChanges><FrequencyChange><Frequency dt:dt="r8">2327510000</Frequency><Timestamp dt:dt="r8">256619635300</Timestamp><Current dt:dt="r8">0</Current><DateUtc dt:dt="string">2014-12-11T16:45:22Z</DateUtc></FrequencyChange></FrequencyChanges></Clock>\n,v4_BCL_f2_g-10-1,60.001,1.0.0.236,1,-607676302,2.0.10.242,2.0.10.242,12-11-2014,12/11/2014 4:45:22 PM,11:45:22,2.0.10.147,107,,,,,,53,1,53,,,,2,,,g,,0.252,,,9.4,,,29.22,,,,,,TrialProc1,,,,vowel 1,vowel 2,1,599,353012,Block2,g2_f0_9_40_f2_29_22_dur_0_252_num_511.wav,,,,
v4_BCL_f2_g,10,1,<?xml version="1.0"?>\n<Clock xmlns:dt="urn:schemas-microsoft-com:datatypes"><Description dt:dt="string">E-Prime Primary Realtime Clock</Description><StartTime><Timestamp dt:dt="int">0</Timestamp><DateUtc dt:dt="string">2014-12-11T16:45:22Z</DateUtc></StartTime><FrequencyChanges><FrequencyChange><Frequency dt:dt="r8">2327510000</Frequency><Timestamp dt:dt="r8">256619635300</Timestamp><Current dt:dt="r8">0</Current><DateUtc dt:dt="string">2014-12-11T16:45:22Z</DateUtc></FrequencyChange></FrequencyChanges></Clock>\n,v4_BCL_f2_g-10-1,60.001,1.0.0.236,1,-607676302,2.0.10.242,2.0.10.242,12-11-2014,12/11/2014 4:45:22 PM,11:45:22,2.0.10.147,108,,,,,,54,1,54,,,,2,,,g,,0.25,,,9.4,,,29.08,,,,,,TrialProc1,,,,vowel 1,vowel 2,1,625,354454,Block2,g2_f0_9_40_f2_29_08_dur_0_250_num_562.wav,,,,
v4_BCL_f2_g,10,1,<?xml version="1.0"?>\n<Clock xmlns:dt="urn:schemas-microsoft-com:datatypes"><Description dt:dt="string">E-Prime Primary Realtime Clock</Description><StartTime><Timestamp dt:dt="int">0</Timestamp><DateUtc dt:dt="string">2014-12-11T16:45:22Z</DateUtc></StartTime><FrequencyChanges><FrequencyChange><Frequency dt:dt="r8">2327510000</Frequency><Timestamp dt:dt="r8">256619635300</Timestamp><Current dt:dt="r8">0</Current><DateUtc dt:dt="string">2014-12-11T16:45:22Z</DateUtc></FrequencyChange></FrequencyChanges></Clock>\n,v4_BCL_f2_g-10-1,60.001,1.0.0.236,1,-607676302,2.0.10.242,2.0.10.242,12-11-2014,12/11/2014 4:45:22 PM,11:45:22,2.0.10.147,109,,,,,,55,1,55,,,,1,,,g,,0.254,,,9.42,,,31.37,,,,,,TrialProc1,,,,vowel 1,vowel 2,2,300,355563,Block2,g1_f0_9_42_f2_31_37_dur_0_254_num_248.wav,,,,
v4_BCL_f2_g,10,1,<?xml version="1.0"?>\n<Clock xmlns:dt="urn:schemas-microsoft-com:datatypes"><Description dt:dt="string">E-Prime Primary Realtime Clock</Description><StartTime><Timestamp dt:dt="int">0</Timestamp><DateUtc dt:dt="string">2014-12-11T16:45:22Z</DateUtc></StartTime><FrequencyChanges><FrequencyChange><Frequency dt:dt="r8">2327510000</Frequency><Timestamp dt:dt="r8">256619635300</Timestamp><Current dt:dt="r8">0</Current><DateUtc dt:dt="string">2014-12-11T16:45:22Z</DateUtc></FrequencyChange></FrequencyChanges></Clock>\n,v4_BCL_f2_g-10-1,60.001,1.0.0.236,1,-607676302,2.0.10.242,2.0.10.242,12-11-2014,12/11/2014 4:45:22 PM,11:45:22,2.0.10.147,110,,,,,,56,1,56,,,,2,,,g,,0.245,,,7.8,,,30.48,,,,,,TrialProc1,,,,vowel 1,vowel 2,2,642,357021,Block2,g2_f0_7_80_f2_30_48_dur_0_245_num_550.wav,,,,
v4_BCL_f2_g,10,1,<?xml version="1.0"?>\n<Clock xmlns:dt="urn:schemas-microsoft-com:datatypes"><Description dt:dt="string">E-Prime Primary Realtime Clock</Description><StartTime><Timestamp dt:dt="int">0</Timestamp><DateUtc dt:dt="string">2014-12-11T16:45:22Z</DateUtc></StartTime><FrequencyChanges><FrequencyChange><Frequency dt:dt="r8">2327510000</Frequency><Timestamp dt:dt="r8">256619635300</Timestamp><Current dt:dt="r8">0</Current><DateUtc dt:dt="string">2014-12-11T16:45:22Z</DateUtc></FrequencyChange></FrequencyChanges></Clock>\n,v4_BCL_f2_g-10-1,60.001,1.0.0.236,1,-607676302,2.0.10.242,2.0.10.242,12-11-2014,12/11/2014 4:45:22 PM,11:45:22,2.0.10.147,111,,,,,,57,1,57,,,,1,,,g,,0.251,,,8.38,,,31.58,,,,,,TrialProc1,,,,vowel 1,vowel 2,2,336,358165,Block2,g1_f0_8_38_f2_31_58_dur_0_251_num_264.wav,,,,
v4_BCL_f2_g,10,1,<?xml version="1.0"?>\n<Clock xmlns:dt="urn:schemas-microsoft-com:datatypes"><Description dt:dt="string">E-Prime Primary Realtime Clock</Description><StartTime><Timestamp dt:dt="int">0</Timestamp><DateUtc dt:dt="string">2014-12-11T16:45:22Z</DateUtc></StartTime><FrequencyChanges><FrequencyChange><Frequency dt:dt="r8">2327510000</Frequency><Timestamp dt:dt="r8">256619635300</Timestamp><Current dt:dt="r8">0</Current><DateUtc dt:dt="string">2014-12-11T16:45:22Z</DateUtc></FrequencyChange></FrequencyChanges></Clock>\n,v4_BCL_f2_g-10-1,60.001,1.0.0.236,1,-607676302,2.0.10.242,2.0.10.242,12-11-2014,12/11/2014 4:45:22 PM,11:45:22,2.0.10.147,112,,,,,,58,1,58,,,,2,,,g,,0.25,,,8.48,,,29.72,,,,,,TrialProc1,,,,vowel 1,vowel 2,1,385,359364,Block2,g2_f0_8_48_f2_29_72_dur_0_250_num_552.wav,,,,
v4_BCL_f2_g,10,1,<?xml version="1.0"?>\n<Clock xmlns:dt="urn:schemas-microsoft-com:datatypes"><Description dt:dt="string">E-Prime Primary Realtime Clock</Description><StartTime><Timestamp dt:dt="int">0</Timestamp><DateUtc dt:dt="string">2014-12-11T16:45:22Z</DateUtc></StartTime><FrequencyChanges><FrequencyChange><Frequency dt:dt="r8">2327510000</Frequency><Timestamp dt:dt="r8">256619635300</Timestamp><Current dt:dt="r8">0</Current><DateUtc dt:dt="string">2014-12-11T16:45:22Z</DateUtc></FrequencyChange></FrequencyChanges></Clock>\n,v4_BCL_f2_g-10-1,60.001,1.0.0.236,1,-607676302,2.0.10.242,2.0.10.242,12-11-2014,12/11/2014 4:45:22 PM,11:45:22,2.0.10.147,113,,,,,,59,1,59,,,,2,,,g,,0.249,,,9.64,,,29.11,,,,,,TrialProc1,,,,vowel 1,vowel 2,1,558,360737,Block2,g2_f0_9_64_f2_29_11_dur_0_249_num_584.wav,,,,
v4_BCL_f2_g,10,1,<?xml version="1.0"?>\n<Clock xmlns:dt="urn:schemas-microsoft-com:datatypes"><Description dt:dt="string">E-Prime Primary Realtime Clock</Description><StartTime><Timestamp dt:dt="int">0</Timestamp><DateUtc dt:dt="string">2014-12-11T16:45:22Z</DateUtc></StartTime><FrequencyChanges><FrequencyChange><Frequency dt:dt="r8">2327510000</Frequency><Timestamp dt:dt="r8">256619635300</Timestamp><Current dt:dt="r8">0</Current><DateUtc dt:dt="string">2014-12-11T16:45:22Z</DateUtc></FrequencyChange></FrequencyChanges></Clock>\n,v4_BCL_f2_g-10-1,60.001,1.0.0.236,1,-607676302,2.0.10.242,2.0.10.242,12-11-2014,12/11/2014 4:45:22 PM,11:45:22,2.0.10.147,114,,,,,,60,1,60,,,,1,,,g,,0.248,,,9.52,,,30.47,,,,,,TrialProc1,,,,vowel 1,vowel 2,1,381,361927,Block2,g1_f0_9_52_f2_30_47_dur_0_248_num_256.wav,,,,
v4_BCL_f2_g,10,1,<?xml version="1.0"?>\n<Clock xmlns:dt="urn:schemas-microsoft-com:datatypes"><Description dt:dt="string">E-Prime Primary Realtime Clock</Description><StartTime><Timestamp dt:dt="int">0</Timestamp><DateUtc dt:dt="string">2014-12-11T16:45:22Z</DateUtc></StartTime><FrequencyChanges><FrequencyChange><Frequency dt:dt="r8">2327510000</Frequency><Timestamp dt:dt="r8">256619635300</Timestamp><Current dt:dt="r8">0</Current><DateUtc dt:dt="string">2014-12-11T16:45:22Z</DateUtc></FrequencyChange></FrequencyChanges></Clock>\n,v4_BCL_f2_g-10-1,60.001,1.0.0.236,1,-607676302,2.0.10.242,2.0.10.242,12-11-2014,12/11/2014 4:45:22 PM,11:45:22,2.0.10.147,115,,,,,,61,1,61,,,,1,,,g,,0.251,,,8.94,,,31.61,,,,,,TrialProc1,,,,vowel 1,vowel 2,2,355,363084,Block2,g1_f0_8_94_f2_31_61_dur_0_251_num_268.wav,,,,
v4_BCL_f2_g,10,1,<?xml version="1.0"?>\n<Clock xmlns:dt="urn:schemas-microsoft-com:datatypes"><Description dt:dt="string">E-Prime Primary Realtime Clock</Description><StartTime><Timestamp dt:dt="int">0</Timestamp><DateUtc dt:dt="string">2014-12-11T16:45:22Z</DateUtc></StartTime><FrequencyChanges><FrequencyChange><Frequency dt:dt="r8">2327510000</Frequency><Timestamp dt:dt="r8">256619635300</Timestamp><Current dt:dt="r8">0</Current><DateUtc dt:dt="string">2014-12-11T16:45:22Z</DateUtc></FrequencyChange></FrequencyChanges></Clock>\n,v4_BCL_f2_g-10-1,60.001,1.0.0.236,1,-607676302,2.0.10.242,2.0.10.242,12-11-2014,12/11/2014 4:45:22 PM,11:45:22,2.0.10.147,116,,,,,,62,1,62,,,,2,,,g,,0.251,,,8.72,,,29.77,,,,,,TrialProc1,,,,vowel 1,vowel 2,2,340,364236,Block2,g2_f0_8_72_f2_29_77_dur_0_251_num_588.wav,,,,
v4_BCL_f2_g,10,1,<?xml version="1.0"?>\n<Clock xmlns:dt="urn:schemas-microsoft-com:datatypes"><Description dt:dt="string">E-Prime Primary Realtime Clock</Description><StartTime><Timestamp dt:dt="int">0</Timestamp><DateUtc dt:dt="string">2014-12-11T16:45:22Z</DateUtc></StartTime><FrequencyChanges><FrequencyChange><Frequency dt:dt="r8">2327510000</Frequency><Timestamp dt:dt="r8">256619635300</Timestamp><Current dt:dt="r8">0</Current><DateUtc dt:dt="string">2014-12-11T16:45:22Z</DateUtc></FrequencyChange></FrequencyChanges></Clock>\n,v4_BCL_f2_g-10-1,60.001,1.0.0.236,1,-607676302,2.0.10.242,2.0.10.242,12-11-2014,12/11/2014 4:45:22 PM,11:45:22,2.0.10.147,117,,,,,,63,1,63,,,,2,,,g,,0.244,,,7.96,,,29.7,,,,,,TrialProc1,,,,vowel 1,vowel 2,2,272,365318,Block2,g2_f0_7_96_f2_29_70_dur_0_244_num_549.wav,,,,
v4_BCL_f2_g,10,1,<?xml version="1.0"?>\n<Clock xmlns:dt="urn:schemas-microsoft-com:datatypes"><Description dt:dt="string">E-Prime Primary Realtime Clock</Description><StartTime><Timestamp dt:dt="int">0</Timestamp><DateUtc dt:dt="string">2014-12-11T16:45:22Z</DateUtc></StartTime><FrequencyChanges><FrequencyChange><Frequency dt:dt="r8">2327510000</Frequency><Timestamp dt:dt="r8">256619635300</Timestamp><Current dt:dt="r8">0</Current><DateUtc dt:dt="string">2014-12-11T16:45:22Z</DateUtc></FrequencyChange></FrequencyChanges></Clock>\n,v4_BCL_f2_g-10-1,60.001,1.0.0.236,1,-607676302,2.0.10.242,2.0.10.242,12-11-2014,12/11/2014 4:45:22 PM,11:45:22,2.0.10.147,118,,,,,,64,1,64,,,,1,,,g,,0.257,,,8.31,,,31.45,,,,,,TrialProc1,,,,vowel 1,vowel 2,2,269,366398,Block2,g1_f0_8_31_f2_31_45_dur_0_257_num_254.wav,,,,
v4_BCL_f2_g,10,1,<?xml version="1.0"?>\n<Clock xmlns:dt="urn:schemas-microsoft-com:datatypes"><Description dt:dt="string">E-Prime Primary Realtime Clock</Description><StartTime><Timestamp dt:dt="int">0</Timestamp><DateUtc dt:dt="string">2014-12-11T16:45:22Z</DateUtc></StartTime><FrequencyChanges><FrequencyChange><Frequency dt:dt="r8">2327510000</Frequency><Timestamp dt:dt="r8">256619635300</Timestamp><Current dt:dt="r8">0</Current><DateUtc dt:dt="string">2014-12-11T16:45:22Z</DateUtc></FrequencyChange></FrequencyChanges></Clock>\n,v4_BCL_f2_g-10-1,60.001,1.0.0.236,1,-607676302,2.0.10.242,2.0.10.242,12-11-2014,12/11/2014 4:45:22 PM,11:45:22,2.0.10.147,119,,,,,,65,1,65,,,,1,,,g,,0.252,,,9.18,,,31.4,,,,,,TrialProc1,,,,vowel 1,vowel 2,1,613,367826,Block2,g1_f0_9_18_f2_31_40_dur_0_252_num_210.wav,,,,
v4_BCL_f2_g,10,1,<?xml version="1.0"?>\n<Clock xmlns:dt="urn:schemas-microsoft-com:datatypes"><Description dt:dt="string">E-Prime Primary Realtime Clock</Description><StartTime><Timestamp dt:dt="int">0</Timestamp><DateUtc dt:dt="string">2014-12-11T16:45:22Z</DateUtc></StartTime><FrequencyChanges><FrequencyChange><Frequency dt:dt="r8">2327510000</Frequency><Timestamp dt:dt="r8">256619635300</Timestamp><Current dt:dt="r8">0</Current><DateUtc dt:dt="string">2014-12-11T16:45:22Z</DateUtc></FrequencyChange></FrequencyChanges></Clock>\n,v4_BCL_f2_g-10-1,60.001,1.0.0.236,1,-607676302,2.0.10.242,2.0.10.242,12-11-2014,12/11/2014 4:45:22 PM,11:45:22,2.0.10.147,120,,,,,,66,1,66,,,,2,,,g,,0.247,,,8.56,,,29.07,,,,,,TrialProc1,,,,vowel 1,vowel 2,2,405,369051,Block2,g2_f0_8_56_f2_29_07_dur_0_247_num_506.wav,,,,
v4_BCL_f2_g,10,1,<?xml version="1.0"?>\n<Clock xmlns:dt="urn:schemas-microsoft-com:datatypes"><Description dt:dt="string">E-Prime Primary Realtime Clock</Description><StartTime><Timestamp dt:dt="int">0</Timestamp><DateUtc dt:dt="string">2014-12-11T16:45:22Z</DateUtc></StartTime><FrequencyChanges><FrequencyChange><Frequency dt:dt="r8">2327510000</Frequency><Timestamp dt:dt="r8">256619635300</Timestamp><Current dt:dt="r8">0</Current><DateUtc dt:dt="string">2014-12-11T16:45:22Z</DateUtc></FrequencyChange></FrequencyChanges></Clock>\n,v4_BCL_f2_g-10-1,60.001,1.0.0.236,1,-607676302,2.0.10.242,2.0.10.242,12-11-2014,12/11/2014 4:45:22 PM,11:45:22,2.0.10.147,121,,,,,,67,1,67,,,,2,,,g,,0.251,,,8.11,,,30.16,,,,,,TrialProc1,,,,vowel 1,vowel 2,2,782,370645,Block2,g2_f0_8_11_f2_30_16_dur_0_251_num_565.wav,,,,
v4_BCL_f2_g,10,1,<?xml version="1.0"?>\n<Clock xmlns:dt="urn:schemas-microsoft-com:datatypes"><Description dt:dt="string">E-Prime Primary Realtime Clock</Description><StartTime><Timestamp dt:dt="int">0</Timestamp><DateUtc dt:dt="string">2014-12-11T16:45:22Z</DateUtc></StartTime><FrequencyChanges><FrequencyChange><Frequency dt:dt="r8">2327510000</Frequency><Timestamp dt:dt="r8">256619635300</Timestamp><Current dt:dt="r8">0</Current><DateUtc dt:dt="string">2014-12-11T16:45:22Z</DateUtc></FrequencyChange></FrequencyChanges></Clock>\n,v4_BCL_f2_g-10-1,60.001,1.0.0.236,1,-607676302,2.0.10.242,2.0.10.242,12-11-2014,12/11/2014 4:45:22 PM,11:45:22,2.0.10.147,122,,,,,,68,1,68,,,,1,,,g,,0.247,,,10.38,,,30.36,,,,,,TrialProc1,,,,vowel 1,vowel 2,1,416,371879,Block2,g1_f0_10_38_f2_30_36_dur_0_247_num_261.wav,,,,
v4_BCL_f2_g,10,1,<?xml version="1.0"?>\n<Clock xmlns:dt="urn:schemas-microsoft-com:datatypes"><Description dt:dt="string">E-Prime Primary Realtime Clock</Description><StartTime><Timestamp dt:dt="int">0</Timestamp><DateUtc dt:dt="string">2014-12-11T16:45:22Z</DateUtc></StartTime><FrequencyChanges><FrequencyChange><Frequency dt:dt="r8">2327510000</Frequency><Timestamp dt:dt="r8">256619635300</Timestamp><Current dt:dt="r8">0</Current><DateUtc dt:dt="string">2014-12-11T16:45:22Z</DateUtc></FrequencyChange></FrequencyChanges></Clock>\n,v4_BCL_f2_g-10-1,60.001,1.0.0.236,1,-607676302,2.0.10.242,2.0.10.242,12-11-2014,12/11/2014 4:45:22 PM,11:45:22,2.0.10.147,123,,,,,,69,1,69,,,,1,,,g,,0.25,,,10.24,,,30.02,,,,,,TrialProc1,,,,vowel 1,vowel 2,1,530,373226,Block2,g1_f0_10_24_f2_30_02_dur_0_250_num_295.wav,,,,
v4_BCL_f2_g,10,1,<?xml version="1.0"?>\n<Clock xmlns:dt="urn:schemas-microsoft-com:datatypes"><Description dt:dt="string">E-Prime Primary Realtime Clock</Description><StartTime><Timestamp dt:dt="int">0</Timestamp><DateUtc dt:dt="string">2014-12-11T16:45:22Z</DateUtc></StartTime><FrequencyChanges><FrequencyChange><Frequency dt:dt="r8">2327510000</Frequency><Timestamp dt:dt="r8">256619635300</Timestamp><Current dt:dt="r8">0</Current><DateUtc dt:dt="string">2014-12-11T16:45:22Z</DateUtc></FrequencyChange></FrequencyChanges></Clock>\n,v4_BCL_f2_g-10-1,60.001,1.0.0.236,1,-607676302,2.0.10.242,2.0.10.242,12-11-2014,12/11/2014 4:45:22 PM,11:45:22,2.0.10.147,124,,,,,,70,1,70,,,,1,,,g,,0.253,,,9.65,,,31.18,,,,,,TrialProc1,,,,vowel 1,vowel 2,2,852,374898,Block2,g1_f0_9_65_f2_31_18_dur_0_253_num_274.wav,,,,
